stair.thisTrialN,stair.stepSize,stair.intensity,thisRow.t,notes,trial.started,fixation.started,grating.started,key_resp.started,fixation.stopped,grating.stopped,trial.stopped, corrAns ,tilt , key_resp.corr,stair.response,key_resp.rt,participant,session,date,expName,psychopyVersion,frameRate,expStart,
0,2,10.0,0.017239038017578423,,0.007935901987366378,0.017239038017578423,0.5149358430062421,0.5149358430062421,0.5315896060201339,0.8147162760142237,1.9841218600049615,right,10.0,1,1,1.3687272609677166,818762,001,2024-09-12_18h49.23.763,adaptive_staircase,2024.1.5,None,2024-09-12 18h49.31.324403 +0530,
1,2,8.0,1.989995522017125,,1.984272095025517,1.989995522017125,2.4982166449772194,2.4982166449772194,2.4982166449772194,2.7986669660313055,3.3174324450083077,left,-8.0,1,1,0.80586481600767,818762,001,2024-09-12_18h49.23.763,adaptive_staircase,2024.1.5,None,2024-09-12 18h49.31.324403 +0530,
2,2,6.0,3.332221094984561,,3.317541563999839,3.332221094984561,3.831813717028126,3.831813717028126,3.831813717028126,4.132694541011006,4.135414433025289,right,6.0,1,1,0.2950745769776404,818762,001,2024-09-12_18h49.23.763,adaptive_staircase,2024.1.5,None,2024-09-12 18h49.31.324403 +0530,
3,1,4.0,4.148430528002791,,4.135558618989307,4.148430528002791,4.649291105975863,4.649291105975863,4.649291105975863,4.949143167003058,5.066726832010318,right,4.0,0,0,0.4090758630190976,818762,001,2024-09-12_18h49.23.763,adaptive_staircase,2024.1.5,None,2024-09-12 18h49.31.324403 +0530,
4,1,5.0,5.081738803011831,,5.066824501031078,5.081738803011831,5.581849278998561,5.581849278998561,5.581849278998561,5.881753878027666,6.151385497010779,right,5.0,0,0,0.5670963699813001,818762,001,2024-09-12_18h49.23.763,adaptive_staircase,2024.1.5,None,2024-09-12 18h49.31.324403 +0530,
5,1,6.0,6.164753275981639,,6.151490438031033,6.164753275981639,6.665099098987412,6.665099098987412,6.665099098987412,,6.683175639016554,right,6.0,1,1,0.0013743420131504536,818762,001,2024-09-12_18h49.23.763,adaptive_staircase,2024.1.5,None,2024-09-12 18h49.31.324403 +0530,
6,1,6.0,6.704717768006958,,6.6832892230013385,6.704717768006958,7.183314453985076,7.183314453985076,7.217455881007481,,7.251460244006012,right,6.0,0,0,0.057031927979551256,818762,001,2024-09-12_18h49.23.763,adaptive_staircase,2024.1.5,None,2024-09-12 18h49.31.324403 +0530,
7,1,7.0,7.265723227988929,,7.251573298999574,7.265723227988929,7.748270007024985,7.748270007024985,7.765490835998207,8.048967344977427,8.73431684600655,left,-7.0,1,1,0.9787535960203968,818762,001,2024-09-12_18h49.23.763,adaptive_staircase,2024.1.5,None,2024-09-12 18h49.31.324403 +0530,
8,1,7.0,8.749112899007741,,8.734405034978408,8.749112899007741,9.24892937601544,9.24892937601544,9.24892937601544,9.550020480004605,9.634063007018995,left,-7.0,1,1,0.3738141569774598,818762,001,2024-09-12_18h49.23.763,adaptive_staircase,2024.1.5,None,2024-09-12 18h49.31.324403 +0530,
9,1,7.0,9.649011114030145,,9.634172164020129,9.649011114030145,10.148952994029969,10.148952994029969,10.148952994029969,10.44920233398443,11.453157384006772,right,7.0,1,1,1.300353165017441,818762,001,2024-09-12_18h49.23.763,adaptive_staircase,2024.1.5,None,2024-09-12 18h49.31.324403 +0530,
10,1,6.0,11.465725224989,,11.453329064999707,11.465725224989,11.965734471974429,11.965734471974429,11.965734471974429,12.266201652004384,12.686761874996591,right,6.0,1,1,0.7054896479821764,818762,001,2024-09-12_18h49.23.763,adaptive_staircase,2024.1.5,None,2024-09-12 18h49.31.324403 +0530,
11,1,6.0,12.706502619024832,,12.68692932400154,12.706502619024832,13.199284243979491,13.199284243979491,13.21631383697968,13.499294304987416,13.585197995998897,right,6.0,1,1,0.38220975000876933,818762,001,2024-09-12_18h49.23.763,adaptive_staircase,2024.1.5,None,2024-09-12 18h49.31.324403 +0530,
12,0.5,6.0,13.599332718993537,,13.585301738989074,13.599332718993537,14.098961283976678,14.098961283976678,14.098961283976678,14.399988139979541,15.451416831987444,left,-6.0,0,0,1.3359921289957128,818762,001,2024-09-12_18h49.23.763,adaptive_staircase,2024.1.5,None,2024-09-12 18h49.31.324403 +0530,
13,0.5,6.5,15.466213522013277,,15.451537396991625,15.466213522013277,15.966043712978717,15.966043712978717,15.966043712978717,16.26631435600575,16.636974372027908,right,6.5,0,0,0.6657539710286073,818762,001,2024-09-12_18h49.23.763,adaptive_staircase,2024.1.5,None,2024-09-12 18h49.31.324403 +0530,
14,0.5,7.0,16.648671263013966,,16.63708191702608,16.648671263013966,17.149416262982413,17.149416262982413,17.149416262982413,17.449541733018123,17.616439727018587,right,7.0,0,0,0.4544039699831046,818762,001,2024-09-12_18h49.23.763,adaptive_staircase,2024.1.5,None,2024-09-12 18h49.31.324403 +0530,
15,0.5,7.5,17.63292459497461,,17.616533056017943,17.63292459497461,18.116219836985692,18.116219836985692,18.133041315013543,18.416314948000945,18.635622680012602,left,-7.5,0,0,0.5171035400126129,818762,001,2024-09-12_18h49.23.763,adaptive_staircase,2024.1.5,None,2024-09-12 18h49.31.324403 +0530,
16,0.5,8.0,18.649280440993607,,18.635729834029917,18.649280440993607,19.149768300994765,19.149768300994765,19.149768300994765,,19.401190157979727,left,-8.0,0,0,0.24337106104940176,818762,001,2024-09-12_18h49.23.763,adaptive_staircase,2024.1.5,None,2024-09-12 18h49.31.324403 +0530,
17,0.5,8.5,19.41627058503218,,19.401277208991814,19.41627058503218,19.91623457602691,19.91623457602691,19.91623457602691,,19.984832025016658,right,8.5,1,1,0.05194194498471916,818762,001,2024-09-12_18h49.23.763,adaptive_staircase,2024.1.5,None,2024-09-12 18h49.31.324403 +0530,
18,0.5,8.5,19.999328917998355,,19.984914169996046,19.999328917998355,20.48337684798753,20.48337684798753,20.49966156098526,20.782966278027743,21.284556095022708,left,-8.5,1,1,0.7925125320325606,818762,001,2024-09-12_18h49.23.763,adaptive_staircase,2024.1.5,None,2024-09-12 18h49.31.324403 +0530,
19,0.5,8.5,21.30010198801756,,21.2846512820106,21.30010198801756,21.79979971598368,21.79979971598368,21.79979971598368,,22.017796437023208,right,8.5,0,0,0.20499673404265195,818762,001,2024-09-12_18h49.23.763,adaptive_staircase,2024.1.5,None,2024-09-12 18h49.31.324403 +0530,
20,0.5,9.0,22.032914698997047,,22.01789226802066,22.032914698997047,22.532141381001566,22.532141381001566,22.532141381001566,22.850994169013575,23.884670629980974,left,-9.0,0,0,1.3454631729982793,818762,001,2024-09-12_18h49.23.763,adaptive_staircase,2024.1.5,None,2024-09-12 18h49.31.324403 +0530,
21,0.5,9.5,23.90011907101143,,23.88476876099594,23.90011907101143,24.399798314028885,24.399798314028885,24.399798314028885,24.706508046016097,26.05161860602675,left,-9.5,1,1,1.634711224003695,818762,001,2024-09-12_18h49.23.763,adaptive_staircase,2024.1.5,None,2024-09-12 18h49.31.324403 +0530,
22,0.5,9.5,26.06645576102892,,26.051734131993726,26.06645576102892,26.566593096009456,26.566593096009456,26.566593096009456,26.866714245988987,27.402079190011136,right,9.5,1,1,0.8232320540118963,818762,001,2024-09-12_18h49.23.763,adaptive_staircase,2024.1.5,None,2024-09-12 18h49.31.324403 +0530,
23,0.5,9.5,27.417277736007236,,27.40217560500605,27.417277736007236,27.917241411982104,27.917241411982104,27.917241411982104,28.21657879301347,28.301337382989004,right,9.5,0,0,0.3738659609807655,818762,001,2024-09-12_18h49.23.763,adaptive_staircase,2024.1.5,None,2024-09-12 18h49.31.324403 +0530,
24,0.5,10.0,28.31714053300675,,28.301427775993943,28.31714053300675,28.800409363990184,28.800409363990184,28.816993260988966,,29.06855472701136,right,10.0,1,1,0.25517772999592125,818762,001,2024-09-12_18h49.23.763,adaptive_staircase,2024.1.5,None,2024-09-12 18h49.31.324403 +0530,
25,0.5,10.0,29.083664031990338,,29.068661277007777,29.083664031990338,29.58368281199364,29.58368281199364,29.58368281199364,29.883382236002944,30.135266450000927,right,10.0,1,1,0.5450193799915724,818762,001,2024-09-12_18h49.23.763,adaptive_staircase,2024.1.5,None,2024-09-12 18h49.31.324403 +0530,
26,0.5,10.0,30.15018980501918,,30.13536578201456,30.15018980501918,30.650548922014423,30.650548922014423,30.650548922014423,30.95064390002517,31.018930024001747,left,-10.0,0,0,0.36232143599772826,818762,001,2024-09-12_18h49.23.763,adaptive_staircase,2024.1.5,None,2024-09-12 18h49.31.324403 +0530,
27,0.5,10.5,31.033777284028474,,31.01903347100597,31.033777284028474,31.534075934032444,31.534075934032444,31.534075934032444,31.833754435006995,32.33528762997594,right,10.5,1,1,0.7906748409732245,818762,001,2024-09-12_18h49.23.763,adaptive_staircase,2024.1.5,None,2024-09-12 18h49.31.324403 +0530,
28,0.5,10.5,32.35081990202889,,32.335386869031936,32.35081990202889,32.85021833702922,32.85021833702922,32.85021833702922,33.15192569402279,33.30246958800126,left,-10.5,1,1,0.43884203903144225,818762,001,2024-09-12_18h49.23.763,adaptive_staircase,2024.1.5,None,2024-09-12 18h49.31.324403 +0530,
29,0.5,10.5,33.31795111199608,,33.30255289201159,33.31795111199608,33.80010366800707,33.80010366800707,33.83396260201698,34.10054269200191,34.53460507298587,left,-10.5,1,1,0.726239388983231,818762,001,2024-09-12_18h49.23.763,adaptive_staircase,2024.1.5,None,2024-09-12 18h49.31.324403 +0530,
30,0.5,10.0,34.55085197702283,,34.534703205979895,34.55085197702283,35.03384577302495,35.03384577302495,35.05082283500815,35.334034779982176,37.87569841602817,right,10.0,1,1,2.8375066529843025,818762,001,2024-09-12_18h49.23.763,adaptive_staircase,2024.1.5,None,2024-09-12 18h49.31.324403 +0530,
31,0.5,10.0,37.885156966978684,,37.87587068998255,37.885156966978684,38.38413425302133,38.38413425302133,38.38413425302133,38.68549127300503,39.33654079103144,right,10.0,1,1,0.948613389977254,818762,001,2024-09-12_18h49.23.763,adaptive_staircase,2024.1.5,None,2024-09-12 18h49.31.324403 +0530,
32,0.5,10.0,39.35061143600615,,39.33669548499165,39.35061143600615,39.850796926009934,39.850796926009934,39.850796926009934,40.15193806501338,40.538593414006755,left,-10.0,1,1,0.6773531960207038,818762,001,2024-09-12_18h49.23.763,adaptive_staircase,2024.1.5,None,2024-09-12 18h49.31.324403 +0530,
33,0.5,9.5,40.55104171403218,,40.538742056000046,40.55104171403218,41.051543909008615,41.051543909008615,41.051543909008615,41.35102917900076,41.86939800699474,left,-9.5,1,1,0.8061140149948187,818762,001,2024-09-12_18h49.23.763,adaptive_staircase,2024.1.5,None,2024-09-12 18h49.31.324403 +0530,
34,0.5,9.5,41.88394335802877,,41.869494109007064,41.88394335802877,42.38430889300071,42.38430889300071,42.38430889300071,42.68472977599595,42.90452845400432,left,-9.5,1,1,0.5176426169928163,818762,001,2024-09-12_18h49.23.763,adaptive_staircase,2024.1.5,None,2024-09-12 18h49.31.324403 +0530,
35,0.5,9.5,42.91811334301019,,42.904678969003726,42.91811334301019,43.41797424602555,43.41797424602555,43.41797424602555,43.71876059501665,44.020224636013154,right,9.5,1,1,0.5984307850012556,818762,001,2024-09-12_18h49.23.763,adaptive_staircase,2024.1.5,None,2024-09-12 18h49.31.324403 +0530,
36,0.5,9.0,44.03460207401076,,44.02038242702838,44.03460207401076,44.53550291899592,44.53550291899592,44.53550291899592,44.83476763399085,44.836633353028446,left,-9.0,0,0,0.286843700974714,818762,001,2024-09-12_18h49.23.763,adaptive_staircase,2024.1.5,None,2024-09-12 18h49.31.324403 +0530,
37,0.5,9.5,44.85128259198973,,44.83678731601685,44.85128259198973,45.35153333900962,45.35153333900962,45.35153333900962,,45.42092487600166,left,-9.5,1,1,0.06621836498379707,818762,001,2024-09-12_18h49.23.763,adaptive_staircase,2024.1.5,None,2024-09-12 18h49.31.324403 +0530,
38,0.5,9.5,45.434316395025235,,45.42106793698622,45.434316395025235,45.92544367199298,45.92544367199298,45.92544367199298,,46.18865308299428,left,-9.5,1,1,0.25830840202979743,818762,001,2024-09-12_18h49.23.763,adaptive_staircase,2024.1.5,None,2024-09-12 18h49.31.324403 +0530,
39,0.5,9.5,46.201235609012656,,46.18874654802494,46.201235609012656,46.707608759985305,46.707608759985305,46.707608759985305,,46.88652841799194,right,9.5,0,0,0.1654636439634487,818762,001,2024-09-12_18h49.23.763,adaptive_staircase,2024.1.5,None,2024-09-12 18h49.31.324403 +0530,
40,0.5,10.0,46.901676330016926,,46.8866150190006,46.901676330016926,47.401990382000804,47.401990382000804,47.401990382000804,,47.519301844993606,right,10.0,0,0,0.10119208897231147,818762,001,2024-09-12_18h49.23.763,adaptive_staircase,2024.1.5,None,2024-09-12 18h49.31.324403 +0530,
41,0.5,10.5,47.53473368199775,,47.51941373501904,47.53473368199775,48.0352743419935,48.0352743419935,48.0352743419935,48.33470876497449,48.38628192897886,right,10.5,1,1,0.3442686519701965,818762,001,2024-09-12_18h49.23.763,adaptive_staircase,2024.1.5,None,2024-09-12 18h49.31.324403 +0530,
42,0.5,10.5,48.401660401024856,,48.386375901987776,48.401660401024856,48.88535518501885,48.88535518501885,48.90182619902771,,49.00321996503044,left,-10.5,0,0,0.10759236000012606,818762,001,2024-09-12_18h49.23.763,adaptive_staircase,2024.1.5,None,2024-09-12 18h49.31.324403 +0530,
43,0.5,11.0,49.01817494200077,,49.0033100519795,49.01817494200077,49.51852467498975,49.51852467498975,49.51852467498975,49.81819387502037,49.98703171097441,right,11.0,0,0,0.464670771965757,818762,001,2024-09-12_18h49.23.763,adaptive_staircase,2024.1.5,None,2024-09-12 18h49.31.324403 +0530,
44,0.5,11.5,50.001340419985354,,49.98713154398138,50.001340419985354,50.50117376400158,50.50117376400158,50.50117376400158,,50.53681811399292,left,-11.5,1,1,0.02962463698349893,818762,001,2024-09-12_18h49.23.763,adaptive_staircase,2024.1.5,None,2024-09-12 18h49.31.324403 +0530,
45,0.5,11.5,50.55227409303188,,50.53695828799391,50.55227409303188,51.05186837801011,51.05186837801011,51.05186837801011,51.35228664200986,51.505968796031084,left,-11.5,0,0,0.4520318459835835,818762,001,2024-09-12_18h49.23.763,adaptive_staircase,2024.1.5,None,2024-09-12 18h49.31.324403 +0530,
46,0.5,12.0,51.51849962997949,,51.50607475999277,51.51849962997949,52.01830240798881,52.01830240798881,52.01830240798881,52.31819783401443,52.319884064025246,right,12.0,0,0,0.2938433429808356,818762,001,2024-09-12_18h49.23.763,adaptive_staircase,2024.1.5,None,2024-09-12 18h49.31.324403 +0530,
47,0.5,12.5,52.335046491993126,,52.31997789099114,52.335046491993126,52.83553044998553,52.83553044998553,52.83553044998553,53.13614937203238,56.40566809900338,right,12.5,0,0,3.556645842967555,818762,001,2024-09-12_18h49.23.763,adaptive_staircase,2024.1.5,None,2024-09-12 18h49.31.324403 +0530,
48,0.5,13.0,56.41860768100014,,56.4057743169833,56.41860768100014,56.919140969985165,56.919140969985165,56.919140969985165,57.21839046297828,58.75525264197495,left,-13.0,1,1,1.818378759024199,818762,001,2024-09-12_18h49.23.763,adaptive_staircase,2024.1.5,None,2024-09-12 18h49.31.324403 +0530,
49,0.5,13.0,58.768656553002074,,58.75541271897964,58.768656553002074,59.26941250899108,59.26941250899108,59.26941250899108,59.569846000988036,60.006005093979184,left,-13.0,1,1,0.7251611069659702,818762,001,2024-09-12_18h49.23.763,adaptive_staircase,2024.1.5,None,2024-09-12 18h49.31.324403 +0530,
50,0.5,13.0,60.01858807000099,,60.00617525097914,60.01858807000099,60.51933720399393,60.51933720399393,60.51933720399393,60.81903641403187,61.18906502198661,left,-13.0,1,1,0.6666686750249937,818762,001,2024-09-12_18h49.23.763,adaptive_staircase,2024.1.5,None,2024-09-12 18h49.31.324403 +0530,
51,0.5,12.5,61.20263137901202,,61.189223625988234,61.20263137901202,61.70298449101392,61.70298449101392,61.70298449101392,62.00277968402952,62.45391977200052,right,12.5,1,1,0.7398652510019019,818762,001,2024-09-12_18h49.23.763,adaptive_staircase,2024.1.5,None,2024-09-12 18h49.31.324403 +0530,
52,0.5,12.5,62.469063423981424,,62.454020223987754,62.469063423981424,62.95365868101362,62.95365868101362,62.970405263011344,63.252821442030836,63.505365988996346,left,-12.5,1,1,0.5356595490011387,818762,001,2024-09-12_18h49.23.763,adaptive_staircase,2024.1.5,None,2024-09-12 18h49.31.324403 +0530,
53,0.5,12.5,63.51937241398264,,63.50554853200447,63.51937241398264,64.01926112698857,64.01926112698857,64.01926112698857,64.31925978697836,64.5046542690252,right,12.5,1,1,0.47234729200135916,818762,001,2024-09-12_18h49.23.763,adaptive_staircase,2024.1.5,None,2024-09-12 18h49.31.324403 +0530,
54,0.5,12.0,64.51935823902022,,64.50476603402058,64.51935823902022,65.01961373898666,65.01961373898666,65.01961373898666,,65.17093541601207,left,-12.0,1,1,0.13811040995642543,818762,001,2024-09-12_18h49.23.763,adaptive_staircase,2024.1.5,None,2024-09-12 18h49.31.324403 +0530,
55,0.5,12.0,65.18599340697983,,65.17103316797875,65.18599340697983,65.68643047299702,65.68643047299702,65.68643047299702,,65.82133169902954,left,-12.0,0,0,0.11872223601676524,818762,001,2024-09-12_18h49.23.763,adaptive_staircase,2024.1.5,None,2024-09-12 18h49.31.324403 +0530,
56,0.5,12.5,65.83589874202153,,65.82144752901513,65.83589874202153,66.33603053999832,66.33603053999832,66.33603053999832,,66.5877500870265,left,-12.5,1,1,0.24107449798611924,818762,001,2024-09-12_18h49.23.763,adaptive_staircase,2024.1.5,None,2024-09-12 18h49.31.324403 +0530,
57,0.5,12.5,66.60259731102269,,66.5878496710211,66.60259731102269,67.08650448702974,67.08650448702974,67.1030196089996,67.4022758170031,68.03770752903074,left,-12.5,1,1,0.944222622027155,818762,001,2024-09-12_18h49.23.763,adaptive_staircase,2024.1.5,None,2024-09-12 18h49.31.324403 +0530,
58,0.5,12.5,68.05326489900472,,68.03781076200539,68.05326489900472,68.55301621300168,68.55301621300168,68.55301621300168,68.853630247002,69.28827693697531,left,-12.5,1,1,0.7266844940022565,818762,001,2024-09-12_18h49.23.763,adaptive_staircase,2024.1.5,None,2024-09-12 18h49.31.324403 +0530,
59,0.5,12.0,69.30260426201858,,69.28842182300286,69.30260426201858,69.80293617001735,69.80293617001735,69.80293617001735,70.10410353698535,70.55494342301972,right,12.0,1,1,0.7463991590193473,818762,001,2024-09-12_18h49.23.763,adaptive_staircase,2024.1.5,None,2024-09-12 18h49.31.324403 +0530,
60,0.5,12.0,70.56904909998411,,70.55505810200702,70.56904909998411,71.07028829900082,71.07028829900082,71.07028829900082,71.3699516269844,71.82134720502654,left,-12.0,1,1,0.7349376630154438,818762,001,2024-09-12_18h49.23.763,adaptive_staircase,2024.1.5,None,2024-09-12 18h49.31.324403 +0530,
61,0.5,12.0,71.83656377298757,,71.82144662801875,71.83656377298757,72.33659106801497,72.33659106801497,72.33659106801497,72.63649839098798,72.88848908100044,left,-12.0,1,1,0.5391488850000314,818762,001,2024-09-12_18h49.23.763,adaptive_staircase,2024.1.5,None,2024-09-12 18h49.31.324403 +0530,
62,0.5,11.5,72.90329520002706,,72.8886010510032,72.90329520002706,73.40407297102502,73.40407297102502,73.40407297102502,73.70441676897462,73.95551207801327,left,-11.5,1,1,0.5345914700301364,818762,001,2024-09-12_18h49.23.763,adaptive_staircase,2024.1.5,None,2024-09-12 18h49.31.324403 +0530,
63,0.5,11.5,73.97019177302718,,73.9556237179786,73.97019177302718,74.47005235601682,74.47005235601682,74.47005235601682,74.77017386298394,75.00572001800174,left,-11.5,1,1,0.52097849996062,818762,001,2024-09-12_18h49.23.763,adaptive_staircase,2024.1.5,None,2024-09-12 18h49.31.324403 +0530,
64,0.5,11.5,75.01956604100997,,75.00581973401131,75.01956604100997,75.5204828659771,75.5204828659771,75.5204828659771,75.8204376490321,76.13779600302223,left,-11.5,1,1,0.6096019850228913,818762,001,2024-09-12_18h49.23.763,adaptive_staircase,2024.1.5,None,2024-09-12 18h49.31.324403 +0530,
65,0.5,11.0,76.15358862798894,,76.13789108302444,76.15358862798894,76.63731901801657,76.63731901801657,76.6536205559969,76.937127718993,77.30608447600389,left,-11.0,1,1,0.6532783010043204,818762,001,2024-09-12_18h49.23.763,adaptive_staircase,2024.1.5,None,2024-09-12 18h49.31.324403 +0530,
66,0.5,11.0,77.32075244799489,,77.3061841870076,77.32075244799489,77.82049768802244,77.82049768802244,77.82049768802244,78.12035556102637,78.42187301901868,right,11.0,1,1,0.584470019035507,818762,001,2024-09-12_18h49.23.763,adaptive_staircase,2024.1.5,None,2024-09-12 18h49.31.324403 +0530,
67,0.5,11.0,78.4368812579778,,78.4220231139916,78.4368812579778,78.92058823799016,78.92058823799016,78.93749064300209,79.22031991701806,79.80637072201353,left,-11.0,1,1,0.8815662490087561,818762,001,2024-09-12_18h49.23.763,adaptive_staircase,2024.1.5,None,2024-09-12 18h49.31.324403 +0530,
68,0.5,10.5,79.82002482598182,,79.80652240698691,79.82002482598182,80.3202853120165,80.3202853120165,80.3202853120165,80.62061625102069,80.68901866697706,left,-10.5,1,1,0.35129365901229903,818762,001,2024-09-12_18h49.23.763,adaptive_staircase,2024.1.5,None,2024-09-12 18h49.31.324403 +0530,
69,0.5,10.5,80.70995717600454,,80.68911527498858,80.70995717600454,81.20437589200446,81.20437589200446,81.22081598901423,81.50491579202935,82.05565446201945,right,10.5,1,1,0.8387184350285679,818762,001,2024-09-12_18h49.23.763,adaptive_staircase,2024.1.5,None,2024-09-12 18h49.31.324403 +0530,
70,0.5,10.5,82.07077025598846,,82.0557466489845,82.07077025598846,82.57053145597456,82.57053145597456,82.57053145597456,82.87088115199003,83.39253855199786,right,10.5,1,1,0.81647196598351,818762,001,2024-09-12_18h49.23.763,adaptive_staircase,2024.1.5,None,2024-09-12 18h49.31.324403 +0530,
71,0.5,10.0,83.40416894701775,,83.39275695802644,83.40416894701775,83.90393482497893,83.90393482497893,83.90393482497893,84.20506805501645,84.43909446999896,left,-10.0,1,1,0.519032938987948,818762,001,2024-09-12_18h49.23.763,adaptive_staircase,2024.1.5,None,2024-09-12 18h49.31.324403 +0530,
72,0.5,10.0,84.45414282201091,,84.43920569197508,84.45414282201091,84.95412332197884,84.95412332197884,84.95412332197884,85.25439985998673,86.09042996203061,left,-10.0,1,1,1.1253352759522386,818762,001,2024-09-12_18h49.23.763,adaptive_staircase,2024.1.5,None,2024-09-12 18h49.31.324403 +0530,
73,0.5,10.0,86.10392791999038,,86.09055463899858,86.10392791999038,86.6042488720268,86.6042488720268,86.6042488720268,86.90453277801862,88.8892175820074,right,10.0,1,1,2.27268253499642,818762,001,2024-09-12_18h49.23.763,adaptive_staircase,2024.1.5,None,2024-09-12 18h49.31.324403 +0530,
74,0.5,9.5,88.90472983999643,,88.88932373700663,88.90472983999643,89.40477246802766,89.40477246802766,89.40477246802766,89.7052026099991,92.1904580470291,left,-9.5,0,0,2.7819266979931854,818762,001,2024-09-12_18h49.23.763,adaptive_staircase,2024.1.5,None,2024-09-12 18h49.31.324403 +0530,
75,0.5,10.0,92.20449727901723,,92.19061407702975,92.20449727901723,92.70929349202197,92.70929349202197,92.70929349202197,93.02264164801454,93.92332122899825,left,-10.0,0,0,1.2102146420511417,818762,001,2024-09-12_18h49.23.763,adaptive_staircase,2024.1.5,None,2024-09-12 18h49.31.324403 +0530,
76,0.5,10.5,93.9382985670236,,93.92348072997993,93.9382985670236,94.43834599899128,94.43834599899128,94.43834599899128,94.73871852800949,95.23983723000856,right,10.5,1,1,0.7900715880095959,818762,001,2024-09-12_18h49.23.763,adaptive_staircase,2024.1.5,None,2024-09-12 18h49.31.324403 +0530,
77,0.5,10.5,95.25497990101576,,95.2399368470069,95.25497990101576,95.7374046560144,95.7374046560144,95.75499490101356,96.03811424097512,96.47650879900903,right,10.5,1,1,0.7342533469782211,818762,001,2024-09-12_18h49.23.763,adaptive_staircase,2024.1.5,None,2024-09-12 18h49.31.324403 +0530,
78,0.5,10.5,96.48784562101355,,96.47674099402502,96.48784562101355,96.98828637402039,96.98828637402039,96.98828637402039,97.28832410398172,98.40678929100977,left,-10.5,1,1,1.4110323970089667,818762,001,2024-09-12_18h49.23.763,adaptive_staircase,2024.1.5,None,2024-09-12 18h49.31.324403 +0530,
79,0.5,10.0,98.42142350802897,,98.40691027097637,98.42142350802897,98.90655100799631,98.90655100799631,98.92343803599942,99.22209535900038,99.64051633700728,left,-10.0,1,1,0.7308472890290432,818762,001,2024-09-12_18h49.23.763,adaptive_staircase,2024.1.5,None,2024-09-12 18h49.31.324403 +0530,
80,0.5,10.0,99.65510178200202,,99.64064194198,99.65510178200202,100.15505613602,100.15505613602,100.15505613602,100.45601034699939,100.67260153999086,left,-10.0,1,1,0.502360061975196,818762,001,2024-09-12_18h49.23.763,adaptive_staircase,2024.1.5,None,2024-09-12 18h49.31.324403 +0530,
81,0.5,10.0,100.69299696799135,,100.67271316697588,100.69299696799135,101.17196187499212,101.17196187499212,101.20556649699574,101.47308429703116,102.12403226300376,right,10.0,1,1,0.9426500090048648,818762,001,2024-09-12_18h49.23.763,adaptive_staircase,2024.1.5,None,2024-09-12 18h49.31.324403 +0530,
82,0.5,9.5,102.13878065702738,,102.12413746502716,102.13878065702738,102.63850148400525,102.63850148400525,102.63850148400525,102.93910227401648,103.3738337699906,right,9.5,1,1,0.7290646989713423,818762,001,2024-09-12_18h49.23.763,adaptive_staircase,2024.1.5,None,2024-09-12 18h49.31.324403 +0530,
83,0.5,9.5,103.38851519097807,,103.3740232270211,103.38851519097807,103.888851538999,103.888851538999,103.888851538999,104.18884393502958,105.05638462200295,right,9.5,1,1,1.1523425869527273,818762,001,2024-09-12_18h49.23.763,adaptive_staircase,2024.1.5,None,2024-09-12 18h49.31.324403 +0530,
84,0.5,9.5,105.07165125699248,,105.0565481579979,105.07165125699248,105.5560349469888,105.5560349469888,105.57242379698437,105.85557347297436,106.29066381900338,left,-9.5,1,1,0.7309056050144136,818762,001,2024-09-12_18h49.23.763,adaptive_staircase,2024.1.5,None,2024-09-12 18h49.31.324403 +0530,
85,0.5,9.0,106.3051771579776,,106.29081410699291,106.3051771579776,106.80689766502474,106.80689766502474,106.80689766502474,107.1217627649894,107.25805145001505,left,-9.0,1,1,0.43542058498132974,818762,001,2024-09-12_18h49.23.763,adaptive_staircase,2024.1.5,None,2024-09-12 18h49.31.324403 +0530,
86,0.5,9.0,107.27286059799371,,107.25816299300641,107.27286059799371,107.77222292497754,107.77222292497754,107.77222292497754,108.07241671299562,109.20786281698383,right,9.0,1,1,1.4287513670278713,818762,001,2024-09-12_18h49.23.763,adaptive_staircase,2024.1.5,None,2024-09-12 18h49.31.324403 +0530,
87,0.5,9.0,109.22206329001347,,109.20795446302509,109.22206329001347,109.7300036699744,109.7300036699744,109.7300036699744,110.0390471679857,110.54188587301178,right,9.0,1,1,0.8091311549651437,818762,001,2024-09-12_18h49.23.763,adaptive_staircase,2024.1.5,None,2024-09-12 18h49.31.324403 +0530,
88,0.5,8.5,110.55542901501758,,110.54204109101556,110.55542901501758,111.05584901297698,111.05584901297698,111.05584901297698,111.35633672901895,111.75778107502265,right,8.5,1,1,0.6948603320051916,818762,001,2024-09-12_18h49.23.763,adaptive_staircase,2024.1.5,None,2024-09-12 18h49.31.324403 +0530,
89,0.5,8.5,111.77264175500022,,111.75787546101492,111.77264175500022,112.27289933298016,112.27289933298016,112.27289933298016,112.57297906599706,113.85831454599975,left,-8.5,1,1,1.575152089993935,818762,001,2024-09-12_18h49.23.763,adaptive_staircase,2024.1.5,None,2024-09-12 18h49.31.324403 +0530,
90,0.5,8.5,113.8726329630008,,113.85846222302644,113.8726329630008,114.37282866297755,114.37282866297755,114.37282866297755,114.67319637298351,115.17548469902249,right,8.5,1,1,0.7847441860358231,818762,001,2024-09-12_18h49.23.763,adaptive_staircase,2024.1.5,None,2024-09-12 18h49.31.324403 +0530,
91,0.5,8.0,115.18970054597594,,115.1755893509835,115.18970054597594,115.68995638197521,115.68995638197521,115.68995638197521,115.99002047500107,116.29198456997983,right,8.0,1,1,0.5985074099735357,818762,001,2024-09-12_18h49.23.763,adaptive_staircase,2024.1.5,None,2024-09-12 18h49.31.324403 +0530,
92,0.5,8.0,116.3057736280025,,116.29218661098275,116.3057736280025,116.80689470499055,116.80689470499055,116.80689470499055,117.10660479398211,117.64138438401278,right,8.0,1,1,0.8273982069804333,818762,001,2024-09-12_18h49.23.763,adaptive_staircase,2024.1.5,None,2024-09-12 18h49.31.324403 +0530,
93,0.5,8.0,117.65681762399618,,117.64148922398454,117.65681762399618,118.15571246901527,118.15571246901527,118.15571246901527,118.45732116501313,118.7760593109997,left,-8.0,1,1,0.6181216900004074,818762,001,2024-09-12_18h49.23.763,adaptive_staircase,2024.1.5,None,2024-09-12 18h49.31.324403 +0530,
94,0.5,7.5,118.78960888198344,,118.77616054902319,118.78960888198344,119.29003185400506,119.29003185400506,119.29003185400506,119.58985104202293,119.65970100002596,left,-7.5,1,1,0.3666994650266133,818762,001,2024-09-12_18h49.23.763,adaptive_staircase,2024.1.5,None,2024-09-12 18h49.31.324403 +0530,
95,0.5,7.5,119.67301481898176,,119.65979560802225,119.67301481898176,120.1732139820233,120.1732139820233,120.1732139820233,120.47261810401687,120.47465155797545,right,7.5,0,0,0.29062898497795686,818762,001,2024-09-12_18h49.23.763,adaptive_staircase,2024.1.5,None,2024-09-12 18h49.31.324403 +0530,
96,0.5,8.0,120.48953548900317,,120.47476094198646,120.48953548900317,120.97335185902193,120.97335185902193,120.99018531898037,,121.04196242301259,right,8.0,1,1,0.05465780902886763,818762,001,2024-09-12_18h49.23.763,adaptive_staircase,2024.1.5,None,2024-09-12 18h49.31.324403 +0530,
97,0.5,8.0,121.05685380898649,,121.0420582430088,121.05685380898649,121.55688749399269,121.55688749399269,121.55688749399269,,121.74165127699962,right,8.0,1,1,0.18109562597237527,818762,001,2024-09-12_18h49.23.763,adaptive_staircase,2024.1.5,None,2024-09-12 18h49.31.324403 +0530,
98,0.5,8.0,121.75660322001204,,121.74179634300526,121.75660322001204,122.25769529800164,122.25769529800164,122.25769529800164,,122.44510026200442,left,-8.0,0,0,0.1814492850098759,818762,001,2024-09-12_18h49.23.763,adaptive_staircase,2024.1.5,None,2024-09-12 18h49.31.324403 +0530,
99,0.5,8.5,122.45605171099305,,122.44523949199356,122.45605171099305,122.95623538998188,122.95623538998188,122.95623538998188,123.25711312500061,164.6610752370325,left,-8.5,0,0,41.695109235995915,818762,001,2024-09-12_18h49.23.763,adaptive_staircase,2024.1.5,None,2024-09-12 18h49.31.324403 +0530,
