delay,freq,condition,thisN,thisTrialN,thisRepN,key_resp.keys,key_resp.rt,key_resp.duration,textbox.text,button.numClicks,button.timesOn,button.timesOff,trials.thisRepN,trials.thisTrialN,trials.thisN,trials.thisIndex,thisRow.t,notes,trial.started,Fixation.started,Polygon.started,key_resp.started,Fixation.stopped,trial.stopped,trials.key_resp.keys,trials.key_resp.rt,trials.key_resp.duration,beep.started,sound_1.started,sound_1.stopped,beep.stopped,response.started,display_text.started,textbox.started,button.started,response.stopped,trials.textbox.text,trials.button.numClicks,trials.button.timesOn,trials.button.timesOff,participant,session,date,expName,psychopyVersion,frameRate,expStart,
0.7,400,exp,0,0,0,space,2.8990214010118507,None,"
200",1,[5.306451598007698],[5.306473093020031],0,0,0,5,0.05397809299756773,,0.04146145700360648,0.05397809299756773,1.0017340180056635,1.0017340180056635,1.0682341140054632,3.9401955590001307,space,2.8990214010118507,None,3.941099278978072,4.651686861649311,4.983034184988355,4.942913424980361,4.944719453982543,4.983034184988355,4.983034184988355,4.983034184988355,10.291102211980615,"
200",1,[5.306451598007698],[5.306473093020031],863653,001,2024-11-15_00h06.56.904,intentional_bonding,2024.2.4,59.92805277607851,2024-11-15 00h07.02.910560 +0530,
0.1,1000,unexp,1,1,0,space,0.09377710198168643,None,"
45",1,[2.3278082650213037],[2.327828005014453],0,1,1,0,10.303737426991574,,10.292616647988325,10.303737426991574,11.302492258982966,11.302492258982966,11.318915135983843,11.406161352992058,space,0.09377710198168643,None,11.40756916598184,11.519562956648103,11.833217976003652,11.810151043988299,11.811215945985168,11.833217976003652,11.833217976003652,11.833217976003652,14.163062776002334,"
45",1,[2.3278082650213037],[2.327828005014453],863653,001,2024-11-15_00h06.56.904,intentional_bonding,2024.2.4,59.92805277607851,2024-11-15 00h07.02.910560 +0530,
0.4,1000,unexp,2,2,0,space,0.13211675800266676,None,"
33",1,[1.3913035019941162],[1.391314851003699],0,2,2,4,14.17608627199661,,14.163740705000237,14.17608627199661,15.16127682197839,15.16127682197839,15.176718504983,15.305297260987572,space,0.13211675800266676,None,15.306671336991712,15.719716176656464,16.033679157000734,16.01050700599444,16.012188633001642,16.033679157000734,16.033679157000734,16.033679157000734,17.426634607982123,"
33",1,[1.3913035019941162],[1.391314851003699],863653,001,2024-11-15_00h06.56.904,intentional_bonding,2024.2.4,59.92805277607851,2024-11-15 00h07.02.910560 +0530,
0.7,400,exp,3,3,0,space,0.11851942000794224,None,"
344 ",1,[2.909218044980662],[2.909240715991473],0,3,3,8,17.437908795982366,,17.427331257989863,17.437908795982366,18.43652953498531,18.43652953498531,18.45347793100518,18.573336770001333,space,0.11851942000794224,None,18.574467127997195,19.28629597966598,19.600125570985256,19.57728645199677,19.57834290000028,19.600125570985256,19.600125570985256,19.600125570985256,22.511356187984347,"
344 ",1,[2.909218044980662],[2.909240715991473],863653,001,2024-11-15_00h06.56.904,intentional_bonding,2024.2.4,59.92805277607851,2024-11-15 00h07.02.910560 +0530,
0.1,400,exp,4,4,0,space,1.9515307239780668,None,"
500",1,[2.332766981999157],[2.332832670013886],0,4,4,6,22.52208821399836,,22.51206445498974,22.52208821399836,23.520979925990105,23.520979925990105,23.53748874500161,25.492360179981915,space,1.9515307239780668,None,25.493735945987282,25.604269373671073,25.916686798998853,25.893989415984834,25.896588431001874,25.916686798998853,25.916686798998853,25.916686798998853,28.25177755000186,"
500",1,[2.332766981999157],[2.332832670013886],863653,001,2024-11-15_00h06.56.904,intentional_bonding,2024.2.4,59.92805277607851,2024-11-15 00h07.02.910560 +0530,
0.4,400,exp,5,5,0,space,0.9358463539974764,None,"
456",1,[1.742279389000032],[1.7423084369802382],0,5,5,7,28.25951194600202,,28.252388983004494,28.25951194600202,29.25336124098976,29.25336124098976,29.2703080069914,30.196838431002107,space,0.9358463539974764,None,30.1983058739861,30.603554485660666,30.917119092977373,30.89452981899376,30.89600953599438,30.917119092977373,30.917119092977373,30.917119092977373,32.660888268990675,"
456",1,[1.742279389000032],[1.7423084369802382],863653,001,2024-11-15_00h06.56.904,intentional_bonding,2024.2.4,59.92805277607851,2024-11-15 00h07.02.910560 +0530,
0.7,1000,unexp,6,6,0,space,0.16815712899551727,None,"
123 ",1,[1.9390080950106494],[1.9390240920183714],0,6,6,2,32.67178774799686,,32.66147338200244,32.67178774799686,33.67112968899892,33.67112968899892,33.67112968899892,33.85758802900091,space,0.16815712899551727,None,33.8589122229896,34.57054491265832,34.88498513298691,34.861207174981246,34.8627574229904,34.88498513298691,34.88498513298691,34.88498513298691,36.82600533499499,"
123 ",1,[1.9390080950106494],[1.9390240920183714],863653,001,2024-11-15_00h06.56.904,intentional_bonding,2024.2.4,59.92805277607851,2024-11-15 00h07.02.910560 +0530,
0.4,1000,unexp,7,7,0,space,0.5115662679891102,None,"
123",1,[1.9880188149982132],[1.9880317870120052],0,7,7,1,36.837947369989706,,36.82660793600371,36.837947369989706,37.83751877999748,37.83751877999748,37.83751877999748,38.359387832984794,space,0.5115662679891102,None,38.36074479299714,38.77087656065511,39.085366418992635,39.06133090300136,39.06280743298703,39.085366418992635,39.085366418992635,39.085366418992635,41.074850545002846,"
123",1,[1.9880188149982132],[1.9880317870120052],863653,001,2024-11-15_00h06.56.904,intentional_bonding,2024.2.4,59.92805277607851,2024-11-15 00h07.02.910560 +0530,
0.1,1000,unexp,8,8,0,space,0.08772606600541621,None,"
456",1,[1.3725985920173116],[1.372624050010927],0,8,8,3,41.08816806098912,,41.07526141600101,41.08816806098912,42.08774853099021,42.08774853099021,42.08774853099021,42.18482117500389,space,0.08772606600541621,None,42.18619328798377,42.288058576672725,42.60370595098357,42.578910090000136,42.58030505100032,42.60370595098357,42.60370595098357,42.60370595098357,43.97807964400272,"
456",1,[1.3725985920173116],[1.372624050010927],863653,001,2024-11-15_00h06.56.904,intentional_bonding,2024.2.4,59.92805277607851,2024-11-15 00h07.02.910560 +0530,
0.1,400,exp,9,9,0,space,0.9762457169999834,None,"
300",1,[1.5938021660258528],[1.5938192190078553],0,9,9,9,43.989249602978816,,43.978523295983905,43.989249602978816,44.989448777982034,44.989448777982034,44.989448777982034,45.974734938994516,space,0.9762457169999834,None,45.97618997099926,46.08803644066599,46.403311989997746,46.37894013800542,46.380039858981036,46.403311989997746,46.403311989997746,46.403311989997746,47.9990825309942,"
300",1,[1.5938021660258528],[1.5938192190078553],863653,001,2024-11-15_00h06.56.904,intentional_bonding,2024.2.4,59.92805277607851,2024-11-15 00h07.02.910560 +0530,
0.1,1000,unexp,10,0,1,space,0.059703890001401305,None,"
708",1,[2.4052086579904426],[2.405221769993659],1,0,10,3,48.009152510989225,,47.99975034900126,48.009152510989225,49.00488744999166,49.00488744999166,49.02212970997789,49.07520766099333,space,0.059703890001401305,None,49.07665161398472,49.1787952846537,49.50283107798896,49.4795076159935,49.48051911100629,49.50283107798896,49.50283107798896,49.50283107798896,51.90979713998968,"
708",1,[2.4052086579904426],[2.405221769993659],863653,001,2024-11-15_00h06.56.904,intentional_bonding,2024.2.4,59.92805277607851,2024-11-15 00h07.02.910560 +0530,
0.7,1000,unexp,11,1,1,space,0.39163086999906227,None,"
666",1,[2.283611485006986],[2.2836284560034983],1,1,11,2,51.92276613297872,,51.910539564996725,51.92276613297872,52.921792865003226,52.921792865003226,52.921792865003226,53.32482496998273,space,0.39163086999906227,None,53.32623174798209,54.03905434866125,54.36044730999856,54.33061160898069,54.332200903998455,54.36044730999856,54.36044730999856,54.36044730999856,56.64546438600519,"
666",1,[2.283611485006986],[2.2836284560034983],863653,001,2024-11-15_00h06.56.904,intentional_bonding,2024.2.4,59.92805277607851,2024-11-15 00h07.02.910560 +0530,
0.4,1000,unexp,12,2,1,space,0.9809552660153713,None,"
444 ",1,[2.3675247249775566],[2.3675369569973554],1,2,12,1,56.655878939985996,,56.64593358599814,56.655878939985996,57.65558834298281,57.65558834298281,57.65558834298281,58.64308870799141,space,0.9809552660153713,None,58.64465961500537,59.05583035064434,59.37034951298847,59.346191062999424,59.3476714839926,59.37034951298847,59.37034951298847,59.37034951298847,61.73943836198305,"
444 ",1,[2.3675247249775566],[2.3675369569973554],863653,001,2024-11-15_00h06.56.904,intentional_bonding,2024.2.4,59.92805277607851,2024-11-15 00h07.02.910560 +0530,
0.1,1000,unexp,13,3,1,space,0.2233567770163063,None,"
345",1,[1.205810888990527],[1.20583309099311],1,3,13,0,61.747459084988805,,61.74018073300249,61.747459084988805,62.739918534993194,62.739918534993194,62.75614134600619,62.97557122100261,space,0.2233567770163063,None,62.97666872298578,63.08925583065526,63.40610109298723,63.38046562499949,63.38165404400206,63.40610109298723,63.40610109298723,63.40610109298723,64.6138079839875,"
345",1,[1.205810888990527],[1.20583309099311],863653,001,2024-11-15_00h06.56.904,intentional_bonding,2024.2.4,59.92805277607851,2024-11-15 00h07.02.910560 +0530,
0.4,1000,unexp,14,4,1,space,0.3184176229988225,None,"
456",1,[0.9945198979985435],[0.9945403540041298],1,4,14,4,64.62404488297761,,64.61419814699912,64.62404488297761,65.62275680000312,65.62275680000312,65.62275680000312,65.9605273490015,space,0.3184176229988225,None,65.96177420698223,66.372860595646,66.69504188798601,66.66335828098818,66.66503528199974,66.69504188798601,66.69504188798601,66.69504188798601,67.69179582700599,"
456",1,[0.9945198979985435],[0.9945403540041298],863653,001,2024-11-15_00h06.56.904,intentional_bonding,2024.2.4,59.92805277607851,2024-11-15 00h07.02.910560 +0530,
0.7,400,exp,15,5,1,space,None,None,"
687",1,[2.8533265640144236],[2.8533590430160984],1,5,15,5,67.70098890300142,,67.69278605098953,67.70098890300142,68.70657789998222,68.70657789998222,68.70657789998222,68.82669190198067,space,None,None,68.82799997300026,69.53954091866423,69.8546440609789,69.83123841299675,69.83279265099554,69.8546440609789,69.8546440609789,69.8546440609789,72.70946717099287,"
687",1,[2.8533265640144236],[2.8533590430160984],863653,001,2024-11-15_00h06.56.904,intentional_bonding,2024.2.4,59.92805277607851,2024-11-15 00h07.02.910560 +0530,
0.1,400,exp,16,6,1,space,0.30737149697961286,None,"
23",1,[1.5090155429788865],[1.5090329439844936],1,6,16,6,72.71811455499846,,72.71014437300619,72.71811455499846,73.72349489599583,73.72349489599583,73.72349489599583,74.04225240598316,space,0.30737149697961286,None,74.04339865298243,74.17084099766022,74.57354294299148,74.52728130298783,74.52905574100441,74.57354294299148,74.57354294299148,74.57354294299148,76.08433518197853,"
23",1,[1.5090155429788865],[1.5090329439844936],863653,001,2024-11-15_00h06.56.904,intentional_bonding,2024.2.4,59.92805277607851,2024-11-15 00h07.02.910560 +0530,
0.1,400,exp,17,7,1,space,0.32168155000545084,None,"
45",1,[1.5079984120093286],[1.5081329990061931],1,7,17,9,76.09408689397969,,76.08514161600033,76.09408689397969,77.0907944579958,77.0907944579958,77.10770165998838,77.42752010098775,space,0.32168155000545084,None,77.42905700398842,77.5403484716701,77.85400432898314,77.83095193799818,77.8320435420028,77.85400432898314,77.85400432898314,77.85400432898314,79.36441260800348,"
45",1,[1.5079984120093286],[1.5081329990061931],863653,001,2024-11-15_00h06.56.904,intentional_bonding,2024.2.4,59.92805277607851,2024-11-15 00h07.02.910560 +0530,
0.4,400,exp,18,8,1,space,0.3135045089875348,None,"
56",1,[1.1009530799929053],[1.1009722109884024],1,8,18,7,79.37599022698123,,79.36508869699901,79.37599022698123,80.37461365098716,80.37461365098716,80.39104097400559,80.69646239999565,space,0.3135045089875348,None,80.69784465199336,81.10765565466524,81.42320440500043,81.39741953997873,81.3985239790054,81.42320440500043,81.42320440500043,81.42320440500043,82.52582552400418,"
56",1,[1.1009530799929053],[1.1009722109884024],863653,001,2024-11-15_00h06.56.904,intentional_bonding,2024.2.4,59.92805277607851,2024-11-15 00h07.02.910560 +0530,
0.7,400,exp,19,9,1,space,0.46710219798842445,None,"
77",1,[1.5373536790139042],[1.5374000419978984],1,9,19,8,82.53385664400412,,82.52648404898355,82.53385664400412,83.54130538500613,83.54130538500613,83.54130538500613,84.01304316599271,space,0.46710219798842445,None,84.01435013199807,84.72434594366156,85.04783717100509,85.01498204100062,85.0165754579939,85.04783717100509,85.04783717100509,85.04783717100509,86.58894976499141,"
77",1,[1.5373536790139042],[1.5374000419978984],863653,001,2024-11-15_00h06.56.904,intentional_bonding,2024.2.4,59.92805277607851,2024-11-15 00h07.02.910560 +0530,
0.1,400,exp,20,0,2,space,0.4350363409903366,None,"
888",1,[1.4113575510273222],[1.4113776810117997],2,0,20,6,86.59741396698519,,86.58960472600302,86.59741396698519,87.59140886200476,87.59140886200476,87.60864209599094,88.04674708598759,space,0.4350363409903366,None,88.04829569198773,88.17245591964844,88.48858093097806,88.4643348499958,88.46544816100504,88.48858093097806,88.48858093097806,88.48858093097806,89.90187020599842,"
888",1,[1.4113575510273222],[1.4113776810117997],863653,001,2024-11-15_00h06.56.904,intentional_bonding,2024.2.4,59.92805277607851,2024-11-15 00h07.02.910560 +0530,
0.7,400,exp,21,1,2,space,1.6634528639842756,None,"
55 ",1,[2.1947638310084585],[2.1947768979880493],2,1,21,8,89.91235265898285,,89.90277282497846,89.91235265898285,90.90852217900101,90.90852217900101,90.92508449600427,92.57892337298836,space,1.6634528639842756,None,92.58015073699062,93.29217855664707,93.61607881399686,93.58276537398342,93.58617100000265,93.61607881399686,93.61607881399686,93.61607881399686,95.81251596400398,"
55 ",1,[2.1947638310084585],[2.1947768979880493],863653,001,2024-11-15_00h06.56.904,intentional_bonding,2024.2.4,59.92805277607851,2024-11-15 00h07.02.910560 +0530,
0.4,400,exp,22,2,2,space,0.4898088979825843,None,"
66",1,[0.8470476510119624],[0.8470592880039476],2,2,22,7,95.82484290900175,,95.812957386981,95.82484290900175,96.82559652300552,96.82559652300552,96.82559652300552,97.32778998298454,space,0.4898088979825843,None,97.32936113499454,97.74171771866192,98.0638260509877,98.03230478498153,98.03352376099792,98.0638260509877,98.0638260509877,98.0638260509877,98.91261597498669,"
66",1,[0.8470476510119624],[0.8470592880039476],863653,001,2024-11-15_00h06.56.904,intentional_bonding,2024.2.4,59.92805277607851,2024-11-15 00h07.02.910560 +0530,
0.1,1000,unexp,23,3,2,space,0.282916286989348,None,"
555 ",1,[3.5917912390141282],[3.591811215999769],2,3,23,3,98.92543126698001,,98.91320581399486,98.92543126698001,99.92557817499619,99.92557817499619,99.92557817499619,100.21420870698057,space,0.282916286989348,None,100.21553735798807,100.32518123064462,100.63817549700616,100.61432613100624,100.6154478979879,100.63817549700616,100.63817549700616,100.63817549700616,104.23196484197979,"
555 ",1,[3.5917912390141282],[3.591811215999769],863653,001,2024-11-15_00h06.56.904,intentional_bonding,2024.2.4,59.92805277607851,2024-11-15 00h07.02.910560 +0530,
0.4,1000,unexp,24,4,2,space,0.49846795899793506,None,"
654",1,[3.164855021983385],[3.1648736379866023],2,4,24,1,104.24256687497837,,104.23250652299612,104.24256687497837,105.24264681199566,105.24264681199566,105.24264681199566,105.74890300098923,space,0.49846795899793506,None,105.7505665619974,106.17325032566829,106.49140939497738,106.46657018500264,106.46834839100484,106.49140939497738,106.49140939497738,106.49140939497738,109.65771320799831,"
654",1,[3.164855021983385],[3.1648736379866023],863653,001,2024-11-15_00h06.56.904,intentional_bonding,2024.2.4,59.92805277607851,2024-11-15 00h07.02.910560 +0530,
0.7,400,exp,25,5,2,space,0.3242068410036154,None,"
456",1,[2.5053723609889857],[2.505392680002842],2,5,25,5,109.66606738598784,,109.65830310198362,109.66606738598784,110.65914000099292,110.65914000099292,110.67597378298524,110.99606068598223,space,0.3242068410036154,None,110.99722342399764,111.71020536966195,112.02438515800168,111.9996915429947,112.00131685499218,112.02438515800168,112.02438515800168,112.02438515800168,114.5315584189957,"
456",1,[2.5053723609889857],[2.505392680002842],863653,001,2024-11-15_00h06.56.904,intentional_bonding,2024.2.4,59.92805277607851,2024-11-15 00h07.02.910560 +0530,
0.1,400,exp,26,6,2,space,0.259856139018666,None,"
675",1,[1.679280784999719],[1.6793009949906264],2,6,26,9,114.54331440100214,,114.53221919899806,114.54331440100214,115.5426745940058,115.5426745940058,115.5426745940058,115.8130114619853,space,0.259856139018666,None,115.81457386098919,115.92682058565357,116.25066001300002,116.21809832999134,116.21968869998818,116.25066001300002,116.25066001300002,116.25066001300002,117.93190464799409,"
675",1,[1.679280784999719],[1.6793009949906264],863653,001,2024-11-15_00h06.56.904,intentional_bonding,2024.2.4,59.92805277607851,2024-11-15 00h07.02.910560 +0530,
0.1,1000,unexp,27,7,2,space,0.2176962259982247,None,"
 456",1,[2.2399984459916595],[2.240015671995934],2,7,27,0,117.94431645199074,,117.9325445680006,117.94431645199074,118.94352186398464,118.94352186398464,118.95981521200156,119.1720006520045,space,0.2176962259982247,None,119.17462567897746,119.2767892416489,119.59058863398968,119.56702307300293,119.56814857199788,119.59058863398968,119.59058863398968,119.59058863398968,121.83228157798294,"
 456",1,[2.2399984459916595],[2.240015671995934],863653,001,2024-11-15_00h06.56.904,intentional_bonding,2024.2.4,59.92805277607851,2024-11-15 00h07.02.910560 +0530,
0.4,1000,unexp,28,8,2,space,0.06149991400889121,None,"
432",1,[1.8992442089947872],[1.8993075389880687],2,8,28,4,121.84379150799941,,121.83293108199723,121.84379150799941,122.84343316199374,122.84343316199374,122.84343316199374,122.91415868600598,space,0.06149991400889121,None,122.91542643599678,123.32670558165798,123.64983685899642,123.6179756129859,123.6198183200031,123.64983685899642,123.64983685899642,123.64983685899642,125.55099424600485,"
432",1,[1.8992442089947872],[1.8993075389880687],863653,001,2024-11-15_00h06.56.904,intentional_bonding,2024.2.4,59.92805277607851,2024-11-15 00h07.02.910560 +0530,
0.7,1000,unexp,29,9,2,space,0.0025213340122718364,None,"
900",1,[4.158078198990552],[4.158099737978773],2,9,29,2,125.56248724099714,,125.55158743797801,125.56248724099714,126.56053663499188,126.56053663499188,126.58287252200535,126.5671595769818,space,0.0025213340122718364,None,126.56840985498275,127.27677996966328,127.59137048898265,127.5693311719806,127.57028113398701,127.59137048898265,127.59137048898265,127.59137048898265,131.751103254006,"
900",1,[4.158078198990552],[4.158099737978773],863653,001,2024-11-15_00h06.56.904,intentional_bonding,2024.2.4,59.92805277607851,2024-11-15 00h07.02.910560 +0530,
0.4,400,exp,30,0,3,space,0.18052480401820503,None,"
45",1,[1.6117969529877882],[1.611821233003866],3,0,30,7,131.76162593098707,,131.7514984489826,131.76162593098707,132.76084867600002,132.76084867600002,132.77737964698463,132.9485483239987,space,0.18052480401820503,None,132.9497325429984,133.3608299276714,133.67402721298276,133.65150500598247,133.65256113698706,133.67402721298276,133.67402721298276,133.67402721298276,135.28788140698452,"
45",1,[1.6117969529877882],[1.611821233003866],863653,001,2024-11-15_00h06.56.904,intentional_bonding,2024.2.4,59.92805277607851,2024-11-15 00h07.02.910560 +0530,
0.4,1000,unexp,31,1,3,space,0.6135972070042044,None,"
456",1,[4.692704977001995],[4.692726428998867],3,1,31,1,135.29868078199797,,135.2885207659856,135.29868078199797,136.29492909100372,136.29492909100372,136.31168600698584,136.91590212698793,space,0.6135972070042044,None,136.91768225000123,137.32792330364853,137.64382711899816,137.6188796479837,137.62030435400084,137.64382711899816,137.64382711899816,137.64382711899816,142.3388046750042,"
456",1,[4.692704977001995],[4.692726428998867],863653,001,2024-11-15_00h06.56.904,intentional_bonding,2024.2.4,59.92805277607851,2024-11-15 00h07.02.910560 +0530,
0.1,400,exp,32,2,3,space,0.38828009300050326,None,"
34",1,[1.4704801279876847],[1.4704985469870735],3,2,32,6,142.34888592598145,,142.33949280300294,142.34888592598145,143.3455485359882,143.3455485359882,143.36209306798992,143.75149772898294,space,0.38828009300050326,None,143.75294664298417,143.86220892265945,144.19949482299853,144.1656808499829,144.16770768800052,144.19949482299853,144.19949482299853,144.19949482299853,145.6719464949856,"
34",1,[1.4704801279876847],[1.4704985469870735],863653,001,2024-11-15_00h06.56.904,intentional_bonding,2024.2.4,59.92805277607851,2024-11-15 00h07.02.910560 +0530,
0.7,400,exp,33,3,3,space,0.2722341959888581,None,"
333",1,[1.2032528540003113],[1.2032830030075274],3,3,33,5,145.6836185150023,,145.6727461660048,145.6836185150023,146.6793973929889,146.6793973929889,146.6957910929923,146.9672488969809,space,0.2722341959888581,None,146.96873545798007,147.67923966265906,147.9978229579865,147.9689104029967,147.97026736100088,147.9978229579865,147.9978229579865,147.9978229579865,149.21042551699793,"
333",1,[1.2032528540003113],[1.2032830030075274],863653,001,2024-11-15_00h06.56.904,intentional_bonding,2024.2.4,59.92805277607851,2024-11-15 00h07.02.910560 +0530,
0.1,1000,unexp,34,4,3,space,0.30783581899595447,None,"
1000",1,[4.2577344559831545],[4.257749958982458],3,4,34,0,149.21987325698137,,149.21132584198494,149.21987325698137,150.21232301899,150.21232301899,150.2290934539924,150.5319992470031,space,0.30783581899595447,None,150.53376188798575,150.64599548865615,150.96158561998163,150.9362143809849,150.9372961279878,150.96158561998163,150.96158561998163,150.96158561998163,155.22144600900356,"
1000",1,[4.2577344559831545],[4.257749958982458],863653,001,2024-11-15_00h06.56.904,intentional_bonding,2024.2.4,59.92805277607851,2024-11-15 00h07.02.910560 +0530,
0.1,1000,unexp,35,5,3,space,0.20144112798152491,None,"
345",1,[1.3068359950266313],[1.3068506340205204],3,5,35,3,155.23174055299023,,155.2221526899957,155.23174055299023,156.22931235699798,156.22931235699798,156.24592397498782,156.43433756098966,space,0.20144112798152491,None,156.43595094198827,156.54623090164776,156.86089942097897,156.8359615249792,156.83712687698426,156.86089942097897,156.86089942097897,156.86089942097897,158.1696976889798,"
345",1,[1.3068359950266313],[1.3068506340205204],863653,001,2024-11-15_00h06.56.904,intentional_bonding,2024.2.4,59.92805277607851,2024-11-15 00h07.02.910560 +0530,
0.1,400,exp,36,6,3,space,0.20515463699121028,None,"
222",1,[1.659511832986027],[1.6595295619918033],3,6,36,9,158.18397311400622,,158.17024141800357,158.18397311400622,159.18433716800064,159.18433716800064,159.20145205498557,159.40093938200152,space,0.20515463699121028,None,159.40267255998333,159.51300158465554,159.82758665599977,159.80332579099922,159.8044506989827,159.82758665599977,159.82758665599977,159.82758665599977,161.4895855159848,"
222",1,[1.659511832986027],[1.6595295619918033],863653,001,2024-11-15_00h06.56.904,intentional_bonding,2024.2.4,59.92805277607851,2024-11-15 00h07.02.910560 +0530,
0.7,1000,unexp,37,7,3,space,0.18390237502171658,None,"
334",1,[4.678428145009093],[4.67845251300605],3,7,37,2,161.50350507398252,,161.49091068498092,161.50350507398252,162.49647116000415,162.49647116000415,162.51338172299438,162.68672193799284,space,0.18390237502171658,None,162.68845672599855,163.3964051446567,163.7211315659806,163.68625010098913,163.68809432900161,163.7211315659806,163.7211315659806,163.7211315659806,168.40160461197956,"
334",1,[4.678428145009093],[4.67845251300605],863653,001,2024-11-15_00h06.56.904,intentional_bonding,2024.2.4,59.92805277607851,2024-11-15 00h07.02.910560 +0530,
0.4,1000,unexp,38,8,3,space,0.15962969200336374,None,"
500",1,[14.34050797202508],[14.340525205014274],3,8,38,4,168.41379579599015,,168.40225617599208,168.41379579599015,169.41412895699614,169.41412895699614,169.41412895699614,169.5843344820023,space,0.15962969200336374,None,169.58578548498917,169.99652913064736,170.30907227500575,170.28559159100405,170.28710060397862,170.30907227500575,170.30907227500575,170.30907227500575,184.6514864009805,"
500",1,[14.34050797202508],[14.340525205014274],863653,001,2024-11-15_00h06.56.904,intentional_bonding,2024.2.4,59.92805277607851,2024-11-15 00h07.02.910560 +0530,
0.7,400,exp,39,9,3,space,0.13438955298624933,None,"
300",1,[1.641225975996349],[1.6412405900191516],3,9,39,8,184.66467801798717,,184.65220061299624,184.66467801798717,185.6643952539889,185.6643952539889,185.6643952539889,185.80434603997855,space,0.13438955298624933,None,185.80586341800517,186.5145534426595,186.828253922984,186.80554396100342,186.80646078899736,186.828253922984,186.828253922984,186.828253922984,188.47114104099455,"
300",1,[1.641225975996349],[1.6412405900191516],863653,001,2024-11-15_00h06.56.904,intentional_bonding,2024.2.4,59.92805277607851,2024-11-15 00h07.02.910560 +0530,
0.1,1000,unexp,40,0,4,space,1.0026060740055982,None,"
456",1,[2.7192668190109544],[2.7192825530073605],4,0,40,0,188.48179289198015,,188.4714695349976,188.48179289198015,189.48129456699826,189.48129456699826,189.48129456699826,190.5014210579975,space,1.0026060740055982,None,190.5025128349953,190.6152601656543,190.92868437900324,190.90583438897738,190.90688139299164,190.92868437900324,190.92868437900324,190.92868437900324,193.6494902939885,"
456",1,[2.7192668190109544],[2.7192825530073605],863653,001,2024-11-15_00h06.56.904,intentional_bonding,2024.2.4,59.92805277607851,2024-11-15 00h07.02.910560 +0530,
0.7,400,exp,41,1,4,space,0.2021756650065072,None,"
556",1,[1.7037606690137181],[1.7037720360094681],4,1,41,8,193.65732920297887,,193.65004473098088,193.65732920297887,194.6647411439917,194.6647411439917,194.6647411439917,194.88431265598047,space,0.2021756650065072,None,194.88541332999012,195.59848738165263,195.91286108799977,195.88904604897834,195.8901694569795,195.91286108799977,195.91286108799977,195.91286108799977,197.61879406598746,"
556",1,[1.7037606690137181],[1.7037720360094681],863653,001,2024-11-15_00h06.56.904,intentional_bonding,2024.2.4,59.92805277607851,2024-11-15 00h07.02.910560 +0530,
0.7,400,exp,42,2,4,space,0.26925976600614376,None,"
789",1,[2.478476145013701],[2.4784975190123077],4,2,42,5,197.63209635499516,,197.61925742099993,197.63209635499516,198.63224837300368,198.63224837300368,198.65067391798948,198.91895169799682,space,0.26925976600614376,None,198.9202404759999,199.631835117649,199.94322163099423,199.92239335199702,199.9234461709857,199.94322163099423,199.94322163099423,199.94322163099423,202.42360008999822,"
789",1,[2.478476145013701],[2.4784975190123077],863653,001,2024-11-15_00h06.56.904,intentional_bonding,2024.2.4,59.92805277607851,2024-11-15 00h07.02.910560 +0530,
0.4,1000,unexp,43,3,4,space,0.340067782002734,None,"
222",1,[2.285019536007894],[2.2850306300097145],4,3,43,4,202.43413976198644,,202.42408922300092,202.43413976198644,203.43245926199597,203.43245926199597,203.4488876859832,203.78617424998083,space,0.340067782002734,None,203.78770296199946,204.18692613765987,204.5135610360012,204.49019961198792,204.49173832099768,204.5135610360012,204.5135610360012,204.5135610360012,206.80031622797833,"
222",1,[2.285019536007894],[2.2850306300097145],863653,001,2024-11-15_00h06.56.904,intentional_bonding,2024.2.4,59.92805277607851,2024-11-15 00h07.02.910560 +0530,
0.4,1000,unexp,44,4,4,space,0.8184650999901351,None,"
345",1,[1.345718564989511],[1.3457346640061587],4,4,44,1,206.80872456199722,,206.80105129399453,206.80872456199722,207.81606659298996,207.81606659298996,207.81606659298996,208.6396482969867,space,0.8184650999901351,None,208.64133334899088,209.0499516436578,209.3636231579876,209.3406567189959,209.34219210999436,209.3636231579876,209.3636231579876,209.3636231579876,210.7112472819863,"
345",1,[1.345718564989511],[1.3457346640061587],863653,001,2024-11-15_00h06.56.904,intentional_bonding,2024.2.4,59.92805277607851,2024-11-15 00h07.02.910560 +0530,
0.1,400,exp,45,5,4,space,0.1275489059917163,None,"
 111  ",1,[10.132602884987136],[10.132627408980625],4,5,45,9,210.72055713098962,,210.71246647200314,210.72055713098962,211.7165241749899,211.7165241749899,211.73279548197752,211.85268895700574,space,0.1275489059917163,None,211.8538921859872,211.96602808966807,212.27877171098953,212.25563424199936,212.2567139879975,212.27877171098953,212.27877171098953,212.27877171098953,222.41490301297745,"
 111  ",1,[10.132602884987136],[10.132627408980625],863653,001,2024-11-15_00h06.56.904,intentional_bonding,2024.2.4,59.92805277607851,2024-11-15 00h07.02.910560 +0530,
0.4,400,exp,46,6,4,space,0.4155646709841676,None,"
367",1,[2.875096431991551],[2.875116743001854],4,6,46,7,222.42417961198953,,222.41557950800052,222.42417961198953,223.41681319798226,223.41681319798226,223.43361722899135,223.83893504398293,space,0.4155646709841676,None,223.84014915698208,224.25045899066416,224.5649390599865,224.5410053829837,224.54278160000104,224.5649390599865,224.5649390599865,224.5649390599865,227.4416191909986,"
367",1,[2.875096431991551],[2.875116743001854],863653,001,2024-11-15_00h06.56.904,intentional_bonding,2024.2.4,59.92805277607851,2024-11-15 00h07.02.910560 +0530,
0.7,1000,unexp,47,7,4,space,0.07352282700594515,None,"
333",1,[2.4676567960123066],[2.4676753290113993],4,7,47,2,227.45174402999692,,227.4420169389923,227.45174402999692,228.45077574299648,228.45077574299648,228.4672042359889,228.53681461099768,space,0.07352282700594515,None,228.53814491297817,229.25115286565077,229.5748259369866,229.54224179597804,229.5442769349902,229.5748259369866,229.5748259369866,229.5748259369866,232.0441772280028,"
333",1,[2.4676567960123066],[2.4676753290113993],863653,001,2024-11-15_00h06.56.904,intentional_bonding,2024.2.4,59.92805277607851,2024-11-15 00h07.02.910560 +0530,
0.1,1000,unexp,48,8,4,space,0.35283565800637007,None,"
678",1,[3.3948369229910895],[3.394853815989336],4,8,48,3,232.0542870759964,,232.04464172400185,232.0542870759964,233.05121126500308,233.05121126500308,233.06799176699133,233.4237996749871,space,0.35283565800637007,None,233.42514047998702,233.53443227065534,233.84932876899256,233.82560319799813,233.8266525149811,233.84932876899256,233.84932876899256,233.84932876899256,237.24665693298448,"
678",1,[3.3948369229910895],[3.394853815989336],863653,001,2024-11-15_00h06.56.904,intentional_bonding,2024.2.4,59.92805277607851,2024-11-15 00h07.02.910560 +0530,
0.1,400,exp,49,9,4,space,0.981784695002716,None,"
555",1,[25.156952781020664],[25.156969883013517],4,9,49,6,237.25661504198797,,237.24855522598955,237.25661504198797,238.25141994899604,238.25141994899604,238.26844999397872,239.239124411979,space,0.981784695002716,None,239.24059128199588,239.3513061516608,239.66747340900474,239.64270917099202,239.64380414999323,239.66747340900474,239.66747340900474,239.66747340900474,264.8262537859846,"
555",1,[25.156952781020664],[25.156969883013517],863653,001,2024-11-15_00h06.56.904,intentional_bonding,2024.2.4,59.92805277607851,2024-11-15 00h07.02.910560 +0530,
0.4,1000,unexp,50,0,5,space,0.21943623697734438,None,"
657",1,[1.4875402210163884],[1.4875579290091991],5,0,50,4,264.83800607698504,,264.8268811680027,264.83800607698504,265.8374378059816,265.8374378059816,265.85319957198226,266.0729791490012,space,0.21943623697734438,None,266.0742753770028,266.48710793466694,266.8011658799951,266.777506835002,266.7790775669855,266.8011658799951,266.8011658799951,266.8011658799951,268.29067599898553,"
657",1,[1.4875402210163884],[1.4875579290091991],863653,001,2024-11-15_00h06.56.904,intentional_bonding,2024.2.4,59.92805277607851,2024-11-15 00h07.02.910560 +0530,
0.1,1000,unexp,51,1,5,space,0.02391176301171072,None,"
400",1,[1.2410503620048985],[1.2410701930057257],5,1,51,0,268.3036274309852,,268.29120421098196,268.3036274309852,269.304061428993,269.304061428993,269.304061428993,269.33993744899635,space,0.02391176301171072,None,269.3411444319936,269.45422794766296,269.7675169929862,269.74434995799675,269.7454758279782,269.7675169929862,269.7675169929862,269.7675169929862,271.0103576630063,"
400",1,[1.2410503620048985],[1.2410701930057257],863653,001,2024-11-15_00h06.56.904,intentional_bonding,2024.2.4,59.92805277607851,2024-11-15 00h07.02.910560 +0530,
0.4,400,exp,52,2,5,space,0.07362931399256922,None,"
389",1,[2.7369322729937267],[2.73695428299834],5,2,52,7,271.0217245199892,,271.0109247539949,271.0217245199892,272.02051131799817,272.02051131799817,272.03693037098856,272.10919000400463,space,0.07362931399256922,None,272.1106033579854,272.52011014864934,272.8344661119918,272.8113678219961,272.81274431498605,272.8344661119918,272.8344661119918,272.8344661119918,275.5734962259885,"
389",1,[2.7369322729937267],[2.73695428299834],863653,001,2024-11-15_00h06.56.904,intentional_bonding,2024.2.4,59.92805277607851,2024-11-15 00h07.02.910560 +0530,
0.1,1000,unexp,53,3,5,space,0.2109754069824703,None,"
498",1,[2.3416976209846325],[2.341717075003544],5,3,53,3,275.58111026798724,,275.5740958410024,275.58111026798724,276.58716407298925,276.58716407298925,276.58716407298925,276.8081528339826,space,0.2109754069824703,None,276.8093597549887,276.92073160564564,277.23292191899964,277.2099421939929,277.211071911006,277.23292191899964,277.23292191899964,277.23292191899964,279.5765106759791,"
498",1,[2.3416976209846325],[2.341717075003544],863653,001,2024-11-15_00h06.56.904,intentional_bonding,2024.2.4,59.92805277607851,2024-11-15 00h07.02.910560 +0530,
0.7,400,exp,54,4,5,space,0.15483590998337604,None,"
0",1,[0.8252819659828674],[0.825302337994799],5,4,54,8,279.58791783297784,,279.57698871399043,279.58791783297784,280.5878109849873,280.5878109849873,280.5878109849873,280.7575305249775,space,0.15483590998337604,None,280.7585165189812,281.47131136866324,281.784757077985,281.7614275679807,281.7628153509868,281.784757077985,281.784757077985,281.784757077985,282.61195283799316,"
0",1,[0.8252819659828674],[0.825302337994799],863653,001,2024-11-15_00h06.56.904,intentional_bonding,2024.2.4,59.92805277607851,2024-11-15 00h07.02.910560 +0530,
0.7,1000,unexp,55,5,5,space,0.3586094379716087,None,"
600",1,[3.0435371579951607],[3.043558123987168],5,5,55,2,282.6228576419817,,282.6126017259958,282.6228576419817,283.62123984799837,283.62123984799837,283.63808001799043,283.990857228986,space,0.3586094379716087,None,283.99219496099977,284.70505735566644,285.0180469279876,284.9945518359891,284.9960742419935,285.0180469279876,285.0180469279876,285.0180469279876,288.0634549029928,"
600",1,[3.0435371579951607],[3.043558123987168],863653,001,2024-11-15_00h06.56.904,intentional_bonding,2024.2.4,59.92805277607851,2024-11-15 00h07.02.910560 +0530,
0.7,400,exp,56,6,5,space,0.24351905199000612,None,"
567",1,[2.2203896479913965],[2.2204094310000073],5,6,56,5,288.0740318839962,,288.064360474993,288.0740318839962,289.071734208992,289.071734208992,289.0888059339777,289.3252078469959,space,0.24351905199000612,None,289.3266236250056,290.03913745965497,290.359682957991,290.3315980199841,290.33831914598704,290.359682957991,290.359682957991,290.359682957991,292.5818451969826,"
567",1,[2.2203896479913965],[2.2204094310000073],863653,001,2024-11-15_00h06.56.904,intentional_bonding,2024.2.4,59.92805277607851,2024-11-15 00h07.02.910560 +0530,
0.1,400,exp,57,7,5,space,0.12545939200208522,None,"
777",1,[2.1073166629939806],[2.1073305899917614],5,7,57,9,292.59167333799996,,292.5823661199829,292.59167333799996,293.5884560739796,293.5884560739796,293.604894307995,293.7253727049974,space,0.12545939200208522,None,293.72652959800325,293.8385930036641,294.16882599698147,294.1432678209967,294.1443549679825,294.16882599698147,294.16882599698147,294.16882599698147,296.27815858999384,"
777",1,[2.1073166629939806],[2.1073305899917614],863653,001,2024-11-15_00h06.56.904,intentional_bonding,2024.2.4,59.92805277607851,2024-11-15 00h07.02.910560 +0530,
0.1,400,exp,58,8,5,space,0.3183422430010978,None,"
122",1,[3.712986302009085],[3.7130051010171883],5,8,58,6,296.2891112039797,,296.2786462639924,296.2891112039797,297.2891214340052,297.2891214340052,297.2891214340052,297.62586420797743,space,0.3183422430010978,None,297.62712774798274,297.7387510286683,298.0523036629893,298.029143939988,298.03022046998376,298.0523036629893,298.0523036629893,298.0523036629893,301.77475072199013,"
122",1,[3.712986302009085],[3.7130051010171883],863653,001,2024-11-15_00h06.56.904,intentional_bonding,2024.2.4,59.92805277607851,2024-11-15 00h07.02.910560 +0530,
0.4,1000,unexp,59,9,5,space,0.26877277399762534,None,"
489",1,[2.904330357996514],[2.9043420439993497],5,9,59,1,301.78512091599987,,301.7756449150038,301.78512091599987,302.78939320598147,302.78939320598147,302.78939320598147,303.07712712098146,space,0.26877277399762534,None,303.07852396098315,303.48908982664966,303.8027293699852,303.7792437390017,303.78064490799443,303.8027293699852,303.8027293699852,303.8027293699852,306.70904579097987,"
489",1,[2.904330357996514],[2.9043420439993497],863653,001,2024-11-15_00h06.56.904,intentional_bonding,2024.2.4,59.92805277607851,2024-11-15 00h07.02.910560 +0530,
0.4,1000,unexp,60,0,6,space,0.1848836709978059,None,"
0",1,[1.939839911996387],[1.939853938005399],6,0,60,1,306.7168393500033,,306.7098035659874,306.7168393500033,307.72287727400544,307.72287727400544,307.72287727400544,307.92645984198316,space,0.1848836709978059,None,307.9277285109856,308.33949067065646,308.65254863200244,308.63011871499475,308.63151586899767,308.65254863200244,308.65254863200244,308.65254863200244,310.59384901999147,"
0",1,[1.939839911996387],[1.939853938005399],863653,001,2024-11-15_00h06.56.904,intentional_bonding,2024.2.4,59.92805277607851,2024-11-15 00h07.02.910560 +0530,
0.7,400,exp,61,1,6,space,0.1764204310020432,None,"
444",1,[3.521834504994331],[3.5218517890025396],6,1,61,8,310.6064381369797,,310.59434291897924,310.6064381369797,311.6065921940026,311.6065921940026,311.6065921940026,311.79418798998813,space,0.1764204310020432,None,311.7955273150001,312.50631054465,312.8211437109858,312.7968986409833,312.79841606799164,312.8211437109858,312.8211437109858,312.8211437109858,316.34470050700475,"
444",1,[3.521834504994331],[3.5218517890025396],863653,001,2024-11-15_00h06.56.904,intentional_bonding,2024.2.4,59.92805277607851,2024-11-15 00h07.02.910560 +0530,
0.1,400,exp,62,2,6,space,0.4690869689802639,None,"
2",1,[2.312171057012165],[2.3121847180009354],6,2,62,6,316.3570601939864,,316.34521739999764,316.3570601939864,317.3574848069984,317.3574848069984,317.3574848069984,317.8436592859798,space,0.4690869689802639,None,317.84515483799623,317.9572479886449,318.27241375498124,318.24778678498114,318.24930049999966,318.27241375498124,318.27241375498124,318.27241375498124,320.5883277510002,"
2",1,[2.312171057012165],[2.3121847180009354],863653,001,2024-11-15_00h06.56.904,intentional_bonding,2024.2.4,59.92805277607851,2024-11-15 00h07.02.910560 +0530,
0.4,1000,unexp,63,3,6,space,0.031964296009391546,None,"
4",1,[1.165997647010954],[1.1660200160113163],6,3,63,4,320.59616883299896,,320.5889970319986,320.59616883299896,321.5902085459966,321.5902085459966,321.6071561429999,321.6284543549991,space,0.031964296009391546,None,321.6300285119796,322.04052184266425,322.36113404200296,322.331465989002,322.3330695189943,322.36113404200296,322.36113404200296,322.36113404200296,323.52918027699343,"
4",1,[1.165997647010954],[1.1660200160113163],863653,001,2024-11-15_00h06.56.904,intentional_bonding,2024.2.4,59.92805277607851,2024-11-15 00h07.02.910560 +0530,
0.4,400,exp,64,4,6,space,0.556488538015401,None,"
5",1,[1.150092363008298],[1.1501107480144128],6,4,64,7,323.544134982978,,323.5300571520056,323.544134982978,324.5413944250031,324.5413944250031,324.55775417899713,325.1133837859961,space,0.556488538015401,None,325.1148161079909,325.5243036956565,325.8379264760006,325.81422408198705,325.81582099499064,325.8379264760006,325.8379264760006,325.8379264760006,326.99003443599213,"
5",1,[1.150092363008298],[1.1501107480144128],863653,001,2024-11-15_00h06.56.904,intentional_bonding,2024.2.4,59.92805277607851,2024-11-15 00h07.02.910560 +0530,
0.1,1000,unexp,65,5,6,space,0.3896514019870665,None,"
678",1,[4.356023691012524],[4.3560353289940394],6,5,65,0,326.9992869400012,,326.9907034210046,326.9992869400012,327.99128688598284,327.99128688598284,328.00811698799953,328.39527936599916,space,0.3896514019870665,None,328.3968387549976,328.50772386065023,328.8218737409916,328.7978069979872,328.7988476640021,328.8218737409916,328.8218737409916,328.8218737409916,333.1800051559985,"
678",1,[4.356023691012524],[4.3560353289940394],863653,001,2024-11-15_00h06.56.904,intentional_bonding,2024.2.4,59.92805277607851,2024-11-15 00h07.02.910560 +0530,
0.7,1000,unexp,66,6,6,space,0.23221340600866824,None,"
499",1,[4.975135684013367],[4.975156442989828],6,6,66,2,333.19140522298403,,333.18058763898443,333.19140522298403,334.18197216198314,334.18197216198314,334.2010297229863,334.429091152997,space,0.23221340600866824,None,334.4305965869862,335.1559373896491,335.4860144179838,335.4503607079969,335.4534561559849,335.4860144179838,335.4860144179838,335.4860144179838,340.4628509809845,"
499",1,[4.975135684013367],[4.975156442989828],863653,001,2024-11-15_00h06.56.904,intentional_bonding,2024.2.4,59.92805277607851,2024-11-15 00h07.02.910560 +0530,
0.1,400,exp,67,7,6,space,0.15121268399525434,None,"
333",1,[3.0552048880199436],[3.055230353027582],6,7,67,9,340.4753551539907,,340.46339540198096,340.4753551539907,341.47506625100505,341.47506625100505,341.47506625100505,341.63067926999065,space,0.15121268399525434,None,341.6321696990053,341.74168320265403,342.06440083499183,342.0327790589945,342.0343620450003,342.06440083499183,342.06440083499183,342.06440083499183,345.12325282397796,"
333",1,[3.0552048880199436],[3.055230353027582],863653,001,2024-11-15_00h06.56.904,intentional_bonding,2024.2.4,59.92805277607851,2024-11-15 00h07.02.910560 +0530,
0.1,1000,unexp,68,8,6,space,0.710920914018061,None,"
222",1,[2.0638251100026537],[2.063836329994956],6,8,68,3,345.1412106289936,,345.12479433999397,345.1412106289936,346.1403184319788,346.1403184319788,346.15241710998816,346.8634093599976,space,0.710920914018061,None,346.8649058789888,346.97593713764604,347.28812462699716,347.26640532299643,347.2674459510017,347.28812462699716,347.28812462699716,347.28812462699716,349.3538797060028,"
222",1,[2.0638251100026537],[2.063836329994956],863653,001,2024-11-15_00h06.56.904,intentional_bonding,2024.2.4,59.92805277607851,2024-11-15 00h07.02.910560 +0530,
0.7,400,exp,69,9,6,space,0.3494636810210068,None,"
666",1,[3.707607641990762],[3.7076174989924766],6,9,69,5,349.3647462709923,,349.35605745899375,349.3647462709923,350.3593913889781,350.3593913889781,350.3766046949895,350.7150477899995,space,0.3494636810210068,None,350.7162134429964,351.4257718196643,351.75746238898137,351.71704150599544,351.72000810300233,351.75746238898137,351.75746238898137,351.75746238898137,355.4666089209786,"
666",1,[3.707607641990762],[3.7076174989924766],863653,001,2024-11-15_00h06.56.904,intentional_bonding,2024.2.4,59.92805277607851,2024-11-15 00h07.02.910560 +0530,
0.4,400,exp,70,0,7,space,0.15997940098168328,None,"
78",1,[4.1933731570024975],[4.193395923008211],7,0,70,7,355.47814151999773,,355.4671621489979,355.47814151999773,356.477059790981,356.477059790981,356.477059790981,356.64914346899604,space,0.15997940098168328,None,356.6505652809865,357.06002032765923,357.38154395099264,357.35014384199167,357.35220722897793,357.38154395099264,357.38154395099264,357.38154395099264,361.57662146899384,"
78",1,[4.1933731570024975],[4.193395923008211],863653,001,2024-11-15_00h06.56.904,intentional_bonding,2024.2.4,59.92805277607851,2024-11-15 00h07.02.910560 +0530,
0.1,400,exp,71,1,7,space,0.4943761350004934,None,"
45",1,[1.1968333779950626],[1.1968504420074169],7,1,71,6,361.58552090398734,,361.57704505498987,361.58552090398734,362.5765552689845,362.5765552689845,362.59381630498683,363.0814549039933,space,0.4943761350004934,None,363.08283417500206,363.19169150165203,363.5166656689835,363.4844611779845,363.4861082790012,363.5166656689835,363.5166656689835,363.5166656689835,364.7155355839932,"
45",1,[1.1968333779950626],[1.1968504420074169],863653,001,2024-11-15_00h06.56.904,intentional_bonding,2024.2.4,59.92805277607851,2024-11-15 00h07.02.910560 +0530,
0.1,1000,unexp,72,2,7,space,0.053115846996661276,None,"
67",1,[0.9761248379945755],[0.9761410369828809],7,2,72,3,364.7270858389966,,364.7162901539996,364.7270858389966,365.72798033899744,365.72798033899744,365.72798033899744,365.79734662000556,space,0.053115846996661276,None,365.7989263070049,365.9109309086673,366.2328571440012,366.2009925429884,366.2022898969881,366.2328571440012,366.2328571440012,366.2328571440012,367.2109402969945,"
67",1,[0.9761248379945755],[0.9761410369828809],863653,001,2024-11-15_00h06.56.904,intentional_bonding,2024.2.4,59.92805277607851,2024-11-15 00h07.02.910560 +0530,
0.4,1000,unexp,73,3,7,space,0.11840139899868518,None,"
78",1,[0.9020834440016188],[0.9021008039999288],7,3,73,4,367.2195607179892,,367.21150552199106,367.2195607179892,368.2108057879959,368.2108057879959,368.22736801498104,368.34748780098744,space,0.11840139899868518,None,368.3489691519935,368.760513462654,369.07905369999935,369.0523738240008,369.05369284100016,369.07905369999935,369.07905369999935,369.07905369999935,369.9834272399894,"
78",1,[0.9020834440016188],[0.9021008039999288],863653,001,2024-11-15_00h06.56.904,intentional_bonding,2024.2.4,59.92805277607851,2024-11-15 00h07.02.910560 +0530,
0.1,1000,unexp,74,4,7,space,0.1440303789859172,None,"
89",1,[0.8602472140046302],[0.8602667940140236],7,4,74,0,369.9951972629933,,369.98411074100295,369.9951972629933,370.99451618400053,370.99451618400053,371.0106777769979,371.14656685700174,space,0.1440303789859172,None,371.1480515819858,371.2611378196491,371.5743982330023,371.55068284098525,371.5517514660023,371.5743982330023,371.5743982330023,371.5743982330023,372.43663722099154,"
89",1,[0.8602472140046302],[0.8602667940140236],863653,001,2024-11-15_00h06.56.904,intentional_bonding,2024.2.4,59.92805277607851,2024-11-15 00h07.02.910560 +0530,
0.1,400,exp,75,5,7,space,0.24191969897947274,None,"
90 ",1,[4.021127369982423],[4.021143696998479],7,5,75,9,372.4464385850006,,372.43710686897975,372.4464385850006,373.4447041490057,373.4447041490057,373.4612648669863,373.697359865997,space,0.24191969897947274,None,373.69861817598576,373.81144530565166,374.1441402339842,374.10205557598965,374.1036891559779,374.1441402339842,374.1441402339842,374.1441402339842,378.1677532600006,"
90 ",1,[4.021127369982423],[4.021143696998479],863653,001,2024-11-15_00h06.56.904,intentional_bonding,2024.2.4,59.92805277607851,2024-11-15 00h07.02.910560 +0530,
0.7,1000,unexp,76,6,7,space,0.17037440498825163,None,"
12",1,[1.294804678997025],[1.294861101981951],7,6,76,2,378.1821847719839,,378.1685584389779,378.1821847719839,379.1820562009816,379.1820562009816,379.1951148939843,379.3651268599788,space,0.17037440498825163,None,379.3664818649995,380.07833689466156,380.39431277898257,380.36893537300057,380.3701793529908,380.39431277898257,380.39431277898257,380.39431277898257,381.6923240959877,"
12",1,[1.294804678997025],[1.294861101981951],863653,001,2024-11-15_00h06.56.904,intentional_bonding,2024.2.4,59.92805277607851,2024-11-15 00h07.02.910560 +0530,
0.7,400,exp,77,7,7,space,0.13872438899124973,None,"
23",1,[1.41536980602541],[1.4153895690105855],7,7,77,5,381.70107895098045,,381.6929831469897,381.70107895098045,382.69512653100537,382.69512653100537,382.7119367889827,382.84868631200516,space,0.13872438899124973,None,382.84992754398263,383.5618474936675,383.8828617069812,383.8526379529794,383.8541595909919,383.8828617069812,383.8828617069812,383.8828617069812,385.30017075600335,"
23",1,[1.41536980602541],[1.4153895690105855],863653,001,2024-11-15_00h06.56.904,intentional_bonding,2024.2.4,59.92805277607851,2024-11-15 00h07.02.910560 +0530,
0.4,1000,unexp,78,8,7,space,0.5687974249885883,None,"
34 ",1,[2.712788279983215],[2.7128093969949987],7,8,78,1,385.3120283979806,,385.3006554559979,385.3120283979806,386.3123309990042,386.3123309990042,386.3123309990042,386.9000692970003,space,0.5687974249885883,None,386.9015470799932,387.31200561667015,387.63664773700293,387.60274007200496,387.6045462949842,387.63664773700293,387.63664773700293,387.63664773700293,390.3514640170033,"
34 ",1,[2.712788279983215],[2.7128093969949987],863653,001,2024-11-15_00h06.56.904,intentional_bonding,2024.2.4,59.92805277607851,2024-11-15 00h07.02.910560 +0530,
0.7,400,exp,79,9,7,space,0.0026540399994701147,None,"
45",1,[1.5205422910221387],[1.5205679410137236],7,9,79,8,390.3635762659833,,390.3522062539996,390.3635762659833,391.36197929500486,391.36197929500486,391.3785510569869,391.38129162898986,space,0.0026540399994701147,None,391.38278623498627,392.0959700986607,392.41666533600073,392.3862998779805,392.3879539349873,392.41666533600073,392.41666533600073,392.41666533600073,393.9393849869957,"
45",1,[1.5205422910221387],[1.5205679410137236],863653,001,2024-11-15_00h06.56.904,intentional_bonding,2024.2.4,59.92805277607851,2024-11-15 00h07.02.910560 +0530,
0.4,1000,unexp,80,0,8,space,0.060222755011636764,None,"
56",1,[1.20646578000742],[1.2064892539929133],8,0,80,1,393.9502273440012,,393.94053819499095,393.9502273440012,394.9461883879849,394.9461883879849,394.96252897099475,395.01622939298977,space,0.060222755011636764,None,395.017653864983,395.42940824965285,395.75138485600473,395.7202041379933,395.7222828529775,395.75138485600473,395.75138485600473,395.75138485600473,396.9606030790019,"
56",1,[1.20646578000742],[1.2064892539929133],863653,001,2024-11-15_00h06.56.904,intentional_bonding,2024.2.4,59.92805277607851,2024-11-15 00h07.02.910560 +0530,
0.1,400,exp,81,1,8,space,0.051740152994170785,None,"
09",1,[1.3660643350158352],[1.3660897790105082],8,1,81,9,396.9690376709914,,396.96106005099136,396.9690376709914,397.9630049050029,397.9630049050029,397.97917566497927,398.03235755398055,space,0.051740152994170785,None,398.0335068999848,398.16058624466336,398.4841221359966,398.45165484800236,398.45307277099346,398.4841221359966,398.4841221359966,398.4841221359966,399.85203947499394,"
09",1,[1.3660643350158352],[1.3660897790105082],863653,001,2024-11-15_00h06.56.904,intentional_bonding,2024.2.4,59.92805277607851,2024-11-15 00h07.02.910560 +0530,
0.4,1000,unexp,82,2,8,space,0.37646716900053434,None,"
98",1,[5.666624925012002],[5.666646444005892],8,2,82,4,399.863875843992,,399.8527544559911,399.863875843992,400.8632401379873,400.8632401379873,400.8632401379873,401.25144526999793,space,0.37646716900053434,None,401.25306854900555,401.6629878186543,401.98866302898386,401.9539445769915,401.95587831697776,401.98866302898386,401.98866302898386,401.98866302898386,407.6572110900015,"
98",1,[5.666624925012002],[5.666646444005892],863653,001,2024-11-15_00h06.56.904,intentional_bonding,2024.2.4,59.92805277607851,2024-11-15 00h07.02.910560 +0530,
0.7,1000,unexp,83,3,8,space,0.046899889974156395,None,"
87",1,[1.210154472006252],[1.2102109999977984],8,3,83,2,407.6674582299893,,407.6582368899835,407.6674582299893,408.66363082200405,408.66363082200405,408.6804182129854,408.7185761370056,space,0.046899889974156395,None,408.72006978598074,409.42997182265776,409.74974327199743,409.71890947400243,409.72036974699586,409.74974327199743,409.74974327199743,409.74974327199743,410.96185885800514,"
87",1,[1.210154472006252],[1.2102109999977984],863653,001,2024-11-15_00h06.56.904,intentional_bonding,2024.2.4,59.92805277607851,2024-11-15 00h07.02.910560 +0530,
0.7,400,exp,84,4,8,space,1.3087713300192263,None,"
76",1,[1.659463375021005],[1.6594786220230162],8,4,84,5,410.9703289549798,,410.96233297800063,410.9703289549798,411.9640059559897,411.9640059559897,411.9805272189842,413.2837864769972,space,1.3087713300192263,None,413.2852521580062,413.99728180366606,414.3085141039919,414.2875752109976,414.28893403097754,414.3085141039919,414.3085141039919,414.3085141039919,415.9696581499884,"
76",1,[1.659463375021005],[1.6594786220230162],863653,001,2024-11-15_00h06.56.904,intentional_bonding,2024.2.4,59.92805277607851,2024-11-15 00h07.02.910560 +0530,
0.1,1000,unexp,85,5,8,space,0.22436809600912966,None,"
65",1,[1.1395660550042521],[1.1395862600184046],8,5,85,0,415.9815548309998,,415.97018714799196,415.9815548309998,416.9808375159919,416.9808375159919,416.9973605039995,417.21773731100257,space,0.22436809600912966,None,417.21913082597894,417.33079948265026,417.648015615996,417.62155351700494,417.6230508330045,417.648015615996,417.648015615996,417.648015615996,418.78911529498873,"
65",1,[1.1395660550042521],[1.1395862600184046],863653,001,2024-11-15_00h06.56.904,intentional_bonding,2024.2.4,59.92805277607851,2024-11-15 00h07.02.910560 +0530,
0.1,400,exp,86,6,8,space,0.40516632099752314,None,"
54",1,[1.6591784409829415],[1.659196296997834],8,6,86,6,418.7992004340049,,418.7894844900002,418.7992004340049,419.7976669429918,419.7976669429918,419.7976669429918,420.2077098749869,space,0.40516632099752314,None,420.2095589549863,420.3142767946449,420.6400872269878,420.605354867992,420.6070686710009,420.6400872269878,420.6400872269878,420.6400872269878,422.3014346669952,"
54",1,[1.6591784409829415],[1.659196296997834],863653,001,2024-11-15_00h06.56.904,intentional_bonding,2024.2.4,59.92805277607851,2024-11-15 00h07.02.910560 +0530,
0.7,400,exp,87,7,8,space,0.023995338997337967,None,"
43",1,[1.543131860991707],[1.5431507579924073],8,7,87,8,422.31466045300476,,422.30210765000083,422.31466045300476,423.31440261000535,423.31440261000535,423.31440261000535,423.35179537700606,space,0.023995338997337967,None,423.3532581339823,424.06491706066686,424.3880399389891,424.3557356520032,424.35776581798564,424.3880399389891,424.3880399389891,424.3880399389891,425.9329400360002,"
43",1,[1.543131860991707],[1.5431507579924073],863653,001,2024-11-15_00h06.56.904,intentional_bonding,2024.2.4,59.92805277607851,2024-11-15 00h07.02.910560 +0530,
0.4,400,exp,88,8,8,space,0.3068508370197378,None,"
32",1,[1.2419958699902054],[1.242014477000339],8,8,88,7,425.94170953700086,,425.93350818398176,425.94170953700086,426.94832571200095,426.94832571200095,426.94832571200095,427.26838640798815,space,0.3068508370197378,None,427.2698385749827,427.68166912964466,428.0043588949775,427.9719804219785,427.9738678119902,428.0043588949775,428.0043588949775,428.0043588949775,429.248551392986,"
32",1,[1.2419958699902054],[1.242014477000339],863653,001,2024-11-15_00h06.56.904,intentional_bonding,2024.2.4,59.92805277607851,2024-11-15 00h07.02.910560 +0530,
0.1,1000,unexp,89,9,8,space,0.09733420301927254,None,"
21",1,[0.9570132789958734],[0.9570320890052244],8,9,89,3,429.2581692999811,,429.24946246200125,429.2581692999811,430.26447329999064,430.26447329999064,430.26447329999064,430.3684488539875,space,0.09733420301927254,None,430.3698902250035,430.48186784267114,430.79560905499966,430.772088512982,430.77312361399527,430.79560905499966,430.79560905499966,430.79560905499966,431.7546939459862,"
21",1,[0.9570132789958734],[0.9570320890052244],863653,001,2024-11-15_00h06.56.904,intentional_bonding,2024.2.4,59.92805277607851,2024-11-15 00h07.02.910560 +0530,
0.7,400,exp,90,0,9,space,0.35215625300770625,None,"
122",1,[2.407655805000104],[2.4076748359948397],9,0,90,8,431.7666348560015,,431.7552081439935,431.7666348560015,432.7652185189945,432.7652185189945,432.78284797098604,433.12264399498235,space,0.35215625300770625,None,433.12405121000484,433.83147231766293,434.1618987910042,434.1240265329834,434.12656919300207,434.1618987910042,434.1618987910042,434.1618987910042,436.5717202319938,"
122",1,[2.407655805000104],[2.4076748359948397],863653,001,2024-11-15_00h06.56.904,intentional_bonding,2024.2.4,59.92805277607851,2024-11-15 00h07.02.910560 +0530,
0.4,1000,unexp,91,1,9,space,0.31452500500017777,None,"
233",1,[2.0726683210232295],[2.0726869020145386],9,1,91,4,436.58357242000056,,436.57240392899257,436.58357242000056,437.5824190309795,437.5824190309795,437.60112404898973,437.90303310900345,space,0.31452500500017777,None,437.90428239598987,438.31604450266263,438.6450622739794,438.62187792899203,438.6229113859881,438.6450622739794,438.6450622739794,438.6450622739794,440.7198366249795,"
233",1,[2.0726683210232295],[2.0726869020145386],863653,001,2024-11-15_00h06.56.904,intentional_bonding,2024.2.4,59.92805277607851,2024-11-15 00h07.02.910560 +0530,
0.1,1000,unexp,92,2,9,space,0.4523715609975625,None,"
 344",1,[2.2145050480030477],[2.2148624900146388],9,2,92,3,440.73261786598596,,440.72043032597867,440.73261786598596,441.73184629299794,441.73184629299794,441.73184629299794,442.2024846120039,space,0.4523715609975625,None,442.2039364069933,442.31588943666816,442.6322719939926,442.60631510798703,442.6074977729877,442.6322719939926,442.6322719939926,442.6322719939926,444.84931380598573,"
 344",1,[2.2145050480030477],[2.2148624900146388],863653,001,2024-11-15_00h06.56.904,intentional_bonding,2024.2.4,59.92805277607851,2024-11-15 00h07.02.910560 +0530,
0.7,1000,unexp,93,3,9,space,0.3363580600125715,None,"
455",1,[1.6751314109715167],[1.6751487299916334],9,3,93,2,444.8583181699796,,444.85003390698694,444.8583181699796,445.84937643198646,445.84937643198646,445.86608304598485,446.189798752981,space,0.3363580600125715,None,446.19141991398646,446.89988561364976,447.21475407099933,447.18998292900505,447.191645925981,447.21475407099933,447.21475407099933,447.21475407099933,448.8916867459775,"
455",1,[1.6751314109715167],[1.6751487299916334],863653,001,2024-11-15_00h06.56.904,intentional_bonding,2024.2.4,59.92805277607851,2024-11-15 00h07.02.910560 +0530,
0.1,400,exp,94,4,9,space,0.2907111700042151,None,"
 566",1,[1.5813524289987981],[1.5813728320063092],9,4,94,6,448.90170614098315,,448.89223518798826,448.90170614098315,449.89985898698797,449.89985898698797,449.9159922830004,450.2029922689835,space,0.2907111700042151,None,450.20446070298203,450.31628376865797,450.63339451098,450.60549214098137,450.60661037199316,450.63339451098,450.63339451098,450.63339451098,452.21650869000587,"
 566",1,[1.5813524289987981],[1.5813728320063092],863653,001,2024-11-15_00h06.56.904,intentional_bonding,2024.2.4,59.92805277607851,2024-11-15 00h07.02.910560 +0530,
0.1,400,exp,95,5,9,space,0.3262868169986177,None,"
677",1,[1.7548188820073847],[1.7548352399899159],9,5,95,9,452.2246797749831,,452.217197304999,452.2246797749831,453.21671332398546,453.21671332398546,453.2331848729809,453.5550733729906,space,0.3262868169986177,None,453.55643881700234,453.66720409866343,453.9805948449939,453.956855366996,453.95858234597836,453.9805948449939,453.9805948449939,453.9805948449939,455.7373846889823,"
677",1,[1.7548188820073847],[1.7548352399899159],863653,001,2024-11-15_00h06.56.904,intentional_bonding,2024.2.4,59.92805277607851,2024-11-15 00h07.02.910560 +0530,
0.1,1000,unexp,96,6,9,space,2.050665351009229,None,"
788",1,[2.91035460299463],[2.9103714890079573],9,6,96,0,455.7502175139962,,455.7380281749938,455.7502175139962,456.750224332005,456.750224332005,456.750224332005,458.8052981889923,space,2.050665351009229,None,458.8067512099806,458.91765216365843,459.2399413709936,459.2066871339921,459.2081343680038,459.2399413709936,459.2399413709936,459.2399413709936,462.1522827799781,"
788",1,[2.91035460299463],[2.9103714890079573],863653,001,2024-11-15_00h06.56.904,intentional_bonding,2024.2.4,59.92805277607851,2024-11-15 00h07.02.910560 +0530,
0.4,1000,unexp,97,7,9,space,0.0347501740034204,None,"
899",1,[1.04980724901543],[1.0498244420159608],9,7,97,1,462.16124958798173,,462.15295146100107,462.16124958798173,463.1726074850012,463.1726074850012,463.1726074850012,463.2208001429972,space,0.0347501740034204,None,463.2222028299875,463.63371247364944,463.9489801909949,463.92576729299617,463.92702594198636,463.9489801909949,463.9489801909949,463.9489801909949,465.0006834619853,"
899",1,[1.04980724901543],[1.0498244420159608],863653,001,2024-11-15_00h06.56.904,intentional_bonding,2024.2.4,59.92805277607851,2024-11-15 00h07.02.910560 +0530,
0.4,400,exp,98,8,9,space,0.1178756559966132,None,"
900 ",1,[2.6330914520076476],[2.633112720999634],9,8,98,7,465.0092638710048,,465.0012359659886,465.0092638710048,466.00099358998705,466.00099358998705,466.0175706599839,466.12659669399727,space,0.1178756559966132,None,466.12845261898474,466.53419583465825,466.85905953499605,466.8245990180003,466.8269823269802,466.85905953499605,466.85905953499605,466.85905953499605,469.4938992279931,"
900 ",1,[2.6330914520076476],[2.633112720999634],863653,001,2024-11-15_00h06.56.904,intentional_bonding,2024.2.4,59.92805277607851,2024-11-15 00h07.02.910560 +0530,
0.7,400,exp,99,9,9,space,0.025431219983147457,None,"
300",1,[1.4776585389918182],[1.477698058995884],9,9,99,5,469.5042047769821,,469.49449960599304,469.5042047769821,470.500623052998,470.500623052998,470.51786744300625,470.53646103598294,space,0.025431219983147457,None,470.53764549898915,471.2511617176681,471.57121549898875,471.54128480900545,471.54316950100474,471.57121549898875,471.57121549898875,471.57121549898875,473.0509906699881,"
300",1,[1.4776585389918182],[1.477698058995884],863653,001,2024-11-15_00h06.56.904,intentional_bonding,2024.2.4,59.92805277607851,2024-11-15 00h07.02.910560 +0530,
0.1,1000,unexp,100,0,10,space,0.3569239149801433,None,"
500",1,[1.6205892619909719],[1.6206066730082966],10,0,100,0,473.0586998889921,,473.0515565859969,473.0586998889921,474.05068404300255,474.05068404300255,474.0678342359897,474.42105338699184,space,0.3569239149801433,None,474.4224020699912,474.5342589956456,474.8507087820035,474.8252290679957,474.8268981909787,474.8507087820035,474.8507087820035,474.8507087820035,476.4729358989862,"
500",1,[1.6205892619909719],[1.6206066730082966],863653,001,2024-11-15_00h06.56.904,intentional_bonding,2024.2.4,59.92805277607851,2024-11-15 00h07.02.910560 +0530,
0.1,400,exp,101,1,10,space,0.22318167900084518,None,"
0",1,[2.6828423220140394],[2.6828652980038896],10,1,101,6,476.4847816649999,,476.4734988309792,476.4847816649999,477.4878615250054,477.4878615250054,477.4878615250054,477.7249147819821,space,0.22318167900084518,None,477.72649380899384,477.835305951656,478.16577177,478.13673105300404,478.13830489700194,478.16577177,478.16577177,478.16577177,480.850573653006,"
0",1,[2.6828423220140394],[2.6828652980038896],863653,001,2024-11-15_00h06.56.904,intentional_bonding,2024.2.4,59.92805277607851,2024-11-15 00h07.02.910560 +0530,
0.7,400,exp,102,2,10,space,0.05813375400612131,None,"
1",1,[0.7987346919835545],[0.7987541589827742],10,2,102,5,480.85863842998515,,480.8511105350044,480.85863842998515,481.8522976109816,481.8522976109816,481.8687070570013,481.9244021869963,space,0.05813375400612131,None,481.9258449859917,482.6354991246519,482.95853822800564,482.92612334300065,482.92769345999113,482.95853822800564,482.95853822800564,482.95853822800564,483.7593063880049,"
1",1,[0.7987346919835545],[0.7987541589827742],863653,001,2024-11-15_00h06.56.904,intentional_bonding,2024.2.4,59.92805277607851,2024-11-15 00h07.02.910560 +0530,
0.4,400,exp,103,3,10,space,0.02557966799940914,None,"
9",1,[1.1859817579970695],[1.1859992949757725],10,3,103,7,483.77124693998485,,483.7599008260004,483.77124693998485,484.76852928998414,484.76852928998414,484.78559385897825,484.80578626698116,space,0.02557966799940914,None,484.80735480299336,485.2188178046529,485.5470858439803,485.5103704179928,485.51271085999906,485.5470858439803,485.5470858439803,485.5470858439803,486.7352209749806,"
9",1,[1.1859817579970695],[1.1859992949757725],863653,001,2024-11-15_00h06.56.904,intentional_bonding,2024.2.4,59.92805277607851,2024-11-15 00h07.02.910560 +0530,
0.7,1000,unexp,104,4,10,space,0.049843669985421,None,"
2",1,[1.0063322620117106],[1.0063522630080115],10,4,104,2,486.7439101469936,,486.7359562199854,486.7439101469936,487.7361958079855,487.7361958079855,487.7521478550043,487.7926357759861,space,0.049843669985421,None,487.79433622199576,488.5026226576631,488.82185056299204,488.7923379029962,488.79495460598264,488.82185056299204,488.82185056299204,488.82185056299204,489.8304327419901,"
2",1,[1.0063322620117106],[1.0063522630080115],863653,001,2024-11-15_00h06.56.904,intentional_bonding,2024.2.4,59.92805277607851,2024-11-15 00h07.02.910560 +0530,
0.1,400,exp,105,5,10,space,0.01756158799980767,None,"
8",1,[2.0215203580155503],[2.021532342012506],10,5,105,9,489.840040865005,,489.83124737397884,489.840040865005,490.835370685003,490.835370685003,490.85298218400567,490.85751853400143,space,0.01756158799980767,None,490.85876560100587,490.96908172266944,491.2851948979951,491.259687430982,491.2611926039972,491.2851948979951,491.2851948979951,491.2851948979951,493.30840152298333,"
8",1,[2.0215203580155503],[2.021532342012506],863653,001,2024-11-15_00h06.56.904,intentional_bonding,2024.2.4,59.92805277607851,2024-11-15 00h07.02.910560 +0530,
0.4,1000,unexp,106,6,10,space,0.38143950400990434,None,"
3",1,[0.5531906289979815],[0.5532128839986399],10,6,106,1,493.32008864197996,,493.3089799019799,493.32008864197996,494.31987658998696,494.31987658998696,494.31987658998696,494.7077532580006,space,0.38143950400990434,None,494.7091810939892,495.12050876566013,495.45839980398887,495.42733648698777,495.4334006549907,495.45839980398887,495.45839980398887,495.45839980398887,496.01368922999245,"
3",1,[0.5531906289979815],[0.5532128839986399],863653,001,2024-11-15_00h06.56.904,intentional_bonding,2024.2.4,59.92805277607851,2024-11-15 00h07.02.910560 +0530,
0.7,400,exp,107,7,10,space,0.3403734840103425,None,"
7",1,[1.7515810769982636],[1.7516518989868928],10,7,107,8,496.0240272569936,,496.01479160800227,496.0240272569936,497.0221932999848,497.0221932999848,497.0363672969979,497.3735661499959,space,0.3403734840103425,None,497.37491740100086,498.08625127465734,498.4139682969835,498.3769883700006,498.37912189000053,498.4139682969835,498.4139682969835,498.4139682969835,500.1698594809859,"
7",1,[1.7515810769982636],[1.7516518989868928],863653,001,2024-11-15_00h06.56.904,intentional_bonding,2024.2.4,59.92805277607851,2024-11-15 00h07.02.910560 +0530,
0.4,1000,unexp,108,8,10,space,0.16308728299918585,None,"
4",1,[1.8873805660114158],[1.8874052810133435],10,8,108,4,500.17958976500086,,500.17157572999713,500.17958976500086,501.1761943339952,501.1761943339952,501.18862857398926,501.35832149899215,space,0.16308728299918585,None,501.35988616300165,501.76948364166697,502.094187641982,502.0619510090037,502.0633922840061,502.094187641982,502.094187641982,502.094187641982,503.98437312297756,"
4",1,[1.8873805660114158],[1.8874052810133435],863653,001,2024-11-15_00h06.56.904,intentional_bonding,2024.2.4,59.92805277607851,2024-11-15 00h07.02.910560 +0530,
0.1,1000,unexp,109,9,10,space,1.4858301999920513,None,"
5",1,[1.4008545059768949],[1.4008680940023623],10,9,109,3,503.99309714799165,,503.98504600298475,503.99309714799165,504.98660800998914,504.98660800998914,505.003791324998,506.49233546099276,space,1.4858301999920513,None,506.49380952698993,506.60346314765434,506.92439786100294,506.89649848398403,506.89878142398084,506.92439786100294,506.92439786100294,506.92439786100294,508.32691794098355,"
5",1,[1.4008545059768949],[1.4008680940023623],863653,001,2024-11-15_00h06.56.904,intentional_bonding,2024.2.4,59.92805277607851,2024-11-15 00h07.02.910560 +0530,
0.4,400,exp,110,0,11,space,1.0689610189874656,None,"
6",1,[2.22836670500692],[2.2284256750135683],11,0,110,7,508.3380030459957,,508.3274988019839,508.3380030459957,509.3373652790033,509.3373652790033,509.3373652790033,510.42481554398546,space,1.0689610189874656,None,510.42617978100316,510.8367673316718,511.17374512998504,511.14093881699955,511.14318822100176,511.17374512998504,511.17374512998504,511.17374512998504,513.4055577039835,"
6",1,[2.22836670500692],[2.2284256750135683],863653,001,2024-11-15_00h06.56.904,intentional_bonding,2024.2.4,59.92805277607851,2024-11-15 00h07.02.910560 +0530,
0.1,400,exp,111,1,11,space,0.05317697298596613,None,"
5",1,[2.4097357880091295],[2.409757201006869],11,1,111,6,513.4141197319841,,513.4062627299863,513.4141197319841,514.421108762006,514.421108762006,514.421108762006,514.4905573379947,space,0.05317697298596613,None,514.4921304229938,514.6043064086446,514.9280676969793,514.8946843209851,514.8965489080001,514.9280676969793,514.9280676969793,514.9280676969793,517.3396914959885,"
5",1,[2.4097357880091295],[2.409757201006869],863653,001,2024-11-15_00h06.56.904,intentional_bonding,2024.2.4,59.92805277607851,2024-11-15 00h07.02.910560 +0530,
0.1,1000,unexp,112,2,11,space,0.2827975779946428,None,"
11",1,[3.1826960609760135],[3.182713979971595],11,2,112,3,517.3483978959848,,517.340536601987,517.3483978959848,518.354674147995,518.354674147995,518.354674147995,518.6429439369822,space,0.2827975779946428,None,518.644333329983,518.7547021216635,519.0771658890008,519.0448259380064,519.0463851869863,519.0771658890008,519.0771658890008,519.0771658890008,522.2620065060037,"
11",1,[3.1826960609760135],[3.182713979971595],863653,001,2024-11-15_00h06.56.904,intentional_bonding,2024.2.4,59.92805277607851,2024-11-15 00h07.02.910560 +0530,
0.7,400,exp,113,3,11,space,3.2353176019969396,None,"
09",1,[7.952233112009708],[7.952251350012375],11,3,113,5,522.2723579839803,,522.2624248520005,522.2723579839803,523.2713208789937,523.2713208789937,523.2713208789937,526.5107930380036,space,3.2353176019969396,None,526.5123381849844,527.2220978806474,527.5359911609848,527.5113769439922,527.5128515179968,527.5359911609848,527.5359911609848,527.5359911609848,535.490460054978,"
09",1,[7.952233112009708],[7.952251350012375],863653,001,2024-11-15_00h06.56.904,intentional_bonding,2024.2.4,59.92805277607851,2024-11-15 00h07.02.910560 +0530,
0.7,400,exp,114,4,11,space,0.31273755501024425,None,"
235",1,[2.870173530012835],[2.870190476998687],11,4,114,8,535.4991910259996,,535.4910239309829,535.4991910259996,536.5065552519809,536.5065552519809,536.5065552519809,536.8270948230056,space,0.31273755501024425,None,536.8285626169818,537.5390389906572,537.8530509419797,537.8294742559956,537.8308540959843,537.8530509419797,537.8530509419797,537.8530509419797,540.7250667029875,"
235",1,[2.870173530012835],[2.870190476998687],863653,001,2024-11-15_00h06.56.904,intentional_bonding,2024.2.4,59.92805277607851,2024-11-15 00h07.02.910560 +0530,
0.4,1000,unexp,115,5,11,space,0.12507176797953434,None,"
500",1,[2.2455901540233754],[2.245609981007874],11,5,115,4,540.7339808889956,,540.7256879569904,540.7339808889956,541.7394447730039,541.7394447730039,541.7394447730039,541.8763860239997,space,0.12507176797953434,None,541.8782857680053,542.28934283066,542.6132989359903,542.5802881440031,542.5823051659972,542.6132989359903,542.6132989359903,542.6132989359903,544.8608014619967,"
500",1,[2.2455901540233754],[2.245609981007874],863653,001,2024-11-15_00h06.56.904,intentional_bonding,2024.2.4,59.92805277607851,2024-11-15 00h07.02.910560 +0530,
0.7,1000,unexp,116,6,11,space,0.10865701400325634,None,"
00",1,[6.065087256982224],[6.065109040995594],11,6,116,2,544.8726904210052,,544.8613173589983,544.8726904210052,545.8723591619928,545.8723591619928,545.8723591619928,545.9930770219944,space,0.10865701400325634,None,545.9944974060054,546.7068114706528,547.023012280988,546.9964388909866,546.9980154520017,547.023012280988,547.023012280988,547.023012280988,553.0901994869928,"
00",1,[6.065087256982224],[6.065109040995594],863653,001,2024-11-15_00h06.56.904,intentional_bonding,2024.2.4,59.92805277607851,2024-11-15 00h07.02.910560 +0530,
0.1,400,exp,117,7,11,space,0.2743505499965977,None,"
100",1,[4.002485575998435],[4.002508378005587],11,7,117,9,553.1015092479938,,553.0912889589963,553.1015092479938,554.0900695349847,554.0900695349847,554.1081036090036,554.3759332539921,space,0.2743505499965977,None,554.3770682629838,554.4902633976637,554.8095019320026,554.7817790209956,554.7831990099803,554.8095019320026,554.8095019320026,554.8095019320026,558.8143721339875,"
100",1,[4.002485575998435],[4.002508378005587],863653,001,2024-11-15_00h06.56.904,intentional_bonding,2024.2.4,59.92805277607851,2024-11-15 00h07.02.910560 +0530,
0.4,1000,unexp,118,8,11,space,0.02688460299395956,None,"
400",1,[3.9122552839980926],[3.9123523970192764],11,8,118,1,558.8256667309906,,558.8149278140045,558.8256667309906,559.8236493739823,559.8236493739823,559.8406982639863,559.8611362219963,space,0.02688460299395956,None,559.8623323399806,560.2739936856708,560.5969929819985,560.5645421340014,560.566743406991,560.5969929819985,560.5969929819985,560.5969929819985,564.5117578640056,"
400",1,[3.9122552839980926],[3.9123523970192764],863653,001,2024-11-15_00h06.56.904,intentional_bonding,2024.2.4,59.92805277607851,2024-11-15 00h07.02.910560 +0530,
0.1,1000,unexp,119,9,11,space,0.1310200790176168,None,"
500",1,[3.862050220981473],[3.8620673189871013],11,9,119,0,564.5241834799817,,564.5123055169825,564.5241834799817,565.5240033610025,565.5240033610025,565.5240033610025,565.6615344930033,space,0.1310200790176168,None,565.6628335730056,565.7740077386591,566.092362965981,566.0645020359952,566.0661795689957,566.092362965981,566.092362965981,566.092362965981,569.9559364960005,"
500",1,[3.862050220981473],[3.8620673189871013],863653,001,2024-11-15_00h06.56.904,intentional_bonding,2024.2.4,59.92805277607851,2024-11-15 00h07.02.910560 +0530,
0.7,400,exp,120,0,12,space,0.07040024700108916,None,"
678",1,[2.5169131430156995],[2.516936607018579],12,0,120,5,569.965064774995,,569.9565807140025,569.965064774995,570.958122563985,570.958122563985,570.9750802439812,571.0446750209958,space,0.07040024700108916,None,571.046091199998,571.7583523856631,572.0803665779822,572.0489292040002,572.0508036809915,572.0803665779822,572.0803665779822,572.0803665779822,574.5991649159987,"
678",1,[2.5169131430156995],[2.516936607018579],863653,001,2024-11-15_00h06.56.904,intentional_bonding,2024.2.4,59.92805277607851,2024-11-15 00h07.02.910560 +0530,
0.1,1000,unexp,121,1,12,space,0.05179861301439814,None,"
33",1,[1.9038209230056964],[1.9038372479844838],12,1,121,3,574.6099694040022,,574.5997508839937,574.6099694040022,575.6085388530046,575.6085388530046,575.6252880060056,575.6651119629969,space,0.05179861301439814,None,575.6666698149929,575.77504895267,576.1019986569881,576.066722454998,576.0702767219918,576.1019986569881,576.1019986569881,576.1019986569881,578.007861355989,"
33",1,[1.9038209230056964],[1.9038372479844838],863653,001,2024-11-15_00h06.56.904,intentional_bonding,2024.2.4,59.92805277607851,2024-11-15 00h07.02.910560 +0530,
0.7,400,exp,122,2,12,space,0.07270277899806388,None,"
90",1,[2.066951971995877],[2.0669736719864886],12,2,122,8,578.016288696992,,578.0083426559868,578.016288696992,579.0083801109868,579.0083801109868,579.0256819319911,579.0965748970048,space,0.07270277899806388,None,579.0981036509911,579.8088722816649,580.1396875119826,580.0998518019915,580.1016522760037,580.1396875119826,580.1396875119826,580.1396875119826,582.208850414987,"
90",1,[2.066951971995877],[2.0669736719864886],863653,001,2024-11-15_00h06.56.904,intentional_bonding,2024.2.4,59.92805277607851,2024-11-15 00h07.02.910560 +0530,
0.4,1000,unexp,123,3,12,space,0.22029304600437172,None,"
50",1,[1.2664851759909652],[1.2665067109919619],12,3,123,4,582.2179743619927,,582.209540521988,582.2179743619927,583.2090514019947,583.2090514019947,583.2268032940046,583.4456974579953,space,0.22029304600437172,None,583.4471905389801,583.8588359636526,584.1851976540056,584.155157621979,584.1588669249904,584.1851976540056,584.1851976540056,584.1851976540056,585.4542424789979,"
50",1,[1.2664851759909652],[1.2665067109919619],863653,001,2024-11-15_00h06.56.904,intentional_bonding,2024.2.4,59.92805277607851,2024-11-15 00h07.02.910560 +0530,
0.1,400,exp,124,4,12,space,0.2744628909858875,None,"
64",1,[1.660225380997872],[1.6602420199778862],12,4,124,6,585.4645752910001,,585.4558137169806,585.4645752910001,586.4586356020009,586.4586356020009,586.4827792540018,586.7467380559829,space,0.2744628909858875,None,586.7482655399945,586.8592448686579,587.1854836329876,587.1578948049864,587.159096021991,587.1854836329876,587.1854836329876,587.1854836329876,588.8476619349967,"
64",1,[1.660225380997872],[1.6602420199778862],863653,001,2024-11-15_00h06.56.904,intentional_bonding,2024.2.4,59.92805277607851,2024-11-15 00h07.02.910560 +0530,
0.1,1000,unexp,125,5,12,space,0.166909247986041,None,"
79",1,[2.3193837529979646],[2.3193995649926364],12,5,125,0,588.8594928429811,,588.8482683689799,588.8594928429811,589.8595312779944,589.8595312779944,589.8595312779944,590.0312399149989,space,0.166909247986041,None,590.0326326529903,590.1573413396584,590.4885018039786,590.4510682459804,590.4528138359892,590.4885018039786,590.4885018039786,590.4885018039786,592.8099288209924,"
79",1,[2.3193837529979646],[2.3193995649926364],863653,001,2024-11-15_00h06.56.904,intentional_bonding,2024.2.4,59.92805277607851,2024-11-15 00h07.02.910560 +0530,
0.1,400,exp,126,6,12,space,0.12446485497639515,None,"
100",1,[1.5005282759957481],[1.500554797006771],12,6,126,9,592.8186828579928,,592.8104569519928,592.8186828579928,593.8098400899908,593.8098400899908,593.8263226499839,593.9459052069869,space,0.12446485497639515,None,593.9470471579989,594.0595711306707,594.379835292988,594.3499642979878,594.3510468769819,594.379835292988,594.379835292988,594.379835292988,595.8818906979868,"
100",1,[1.5005282759957481],[1.500554797006771],863653,001,2024-11-15_00h06.56.904,intentional_bonding,2024.2.4,59.92805277607851,2024-11-15 00h07.02.910560 +0530,
0.4,400,exp,127,7,12,space,0.016797869990114123,None,"
888",1,[3.1925775419804268],[3.1925954789912794],12,7,127,7,595.8932567409938,,595.8822725199861,595.8932567409938,596.8926788259996,596.8926788259996,596.8926788259996,596.9149434329884,space,0.016797869990114123,None,596.9161551529833,597.3267569126658,597.6479990799853,597.6175240909797,597.61867652199,597.6479990799853,597.6479990799853,597.6479990799853,600.8427783339866,"
888",1,[3.1925775419804268],[3.1925954789912794],863653,001,2024-11-15_00h06.56.904,intentional_bonding,2024.2.4,59.92805277607851,2024-11-15 00h07.02.910560 +0530,
0.4,1000,unexp,128,8,12,space,None,None,"
1000",1,[1.7008689640206285],[1.700891564018093],12,8,128,1,600.8513827539864,,600.8434573159902,600.8513827539864,601.8439294830023,601.8439294830023,601.8620375339815,601.9152513909794,space,None,None,601.9167974159936,602.3270541136483,602.6532887590001,602.618641715002,602.6201454369875,602.6532887590001,602.6532887590001,602.6532887590001,604.3574419719807,"
1000",1,[1.7008689640206285],[1.700891564018093],863653,001,2024-11-15_00h06.56.904,intentional_bonding,2024.2.4,59.92805277607851,2024-11-15 00h07.02.910560 +0530,
0.7,1000,unexp,129,9,12,space,0.3485689120134339,None,"
398",1,[2.4448026639875025],[2.4448278580093756],12,9,129,2,604.3656985790003,,604.3579768849886,604.3656985790003,605.359885318001,605.359885318001,605.3767185999895,605.7145090439881,space,0.3485689120134339,None,605.7156615399872,606.4271673166697,606.7433287589811,606.7178402099817,606.7192667679919,606.7433287589811,606.7433287589811,606.7433287589811,609.1916336919821,"
398",1,[2.4448026639875025],[2.4448278580093756],863653,001,2024-11-15_00h06.56.904,intentional_bonding,2024.2.4,59.92805277607851,2024-11-15 00h07.02.910560 +0530,
0.4,1000,unexp,130,0,13,space,0.13313301900052465,None,"
455",1,[4.168315960996551],[4.1683330810046755],13,0,130,1,609.2011398820032,,609.1922000939958,609.2011398820032,610.1939773259801,610.1939773259801,610.2109981359972,610.3328683239815,space,0.13313301900052465,None,610.3341792539868,610.7435867356583,611.0667917349783,611.0349056359846,611.0369070929883,611.0667917349783,611.0667917349783,611.0667917349783,615.2367647349893,"
455",1,[4.168315960996551],[4.1683330810046755],863653,001,2024-11-15_00h06.56.904,intentional_bonding,2024.2.4,59.92805277607851,2024-11-15 00h07.02.910560 +0530,
0.7,400,exp,131,1,13,space,0.27377961299498565,None,"
200",1,[2.321481601014966],[2.3215034780150745],13,1,131,8,615.24724728,,615.2374067199999,615.24724728,616.2444278099865,616.2444278099865,616.2610072889947,616.5321524449973,space,0.27377961299498565,None,616.533573616005,617.2439437836622,617.5684724779858,617.5360609359923,617.5375550169847,617.5684724779858,617.5684724779858,617.5684724779858,619.8926336139848,"
200",1,[2.321481601014966],[2.3215034780150745],863653,001,2024-11-15_00h06.56.904,intentional_bonding,2024.2.4,59.92805277607851,2024-11-15 00h07.02.910560 +0530,
0.1,1000,unexp,132,2,13,space,0.051222092006355524,None,"
 10",1,[1.6419621400127653],[1.6419802000164054],13,2,132,0,619.9003088889876,,619.8930969899811,619.9003088889876,620.8952834520023,620.8952834520023,620.9116275669949,620.9686853530002,space,0.051222092006355524,None,620.9702372419997,621.0784948036637,621.3920041749952,621.3691811430035,621.370247326995,621.3920041749952,621.3920041749952,621.3920041749952,623.0360112469934,"
 10",1,[1.6419621400127653],[1.6419802000164054],863653,001,2024-11-15_00h06.56.904,intentional_bonding,2024.2.4,59.92805277607851,2024-11-15 00h07.02.910560 +0530,
0.7,400,exp,133,3,13,space,0.41960183600895107,None,"
333",1,[2.1738983629911672],[2.17392504500458],13,3,133,5,623.0478554389847,,623.0369497560023,623.0478554389847,624.0446444989939,624.0446444989939,624.0612743749807,624.4832968289847,space,0.41960183600895107,None,624.4848673199886,625.1951787576584,625.5166039549804,625.4852120379801,625.48690028899,625.5166039549804,625.5166039549804,625.5166039549804,627.6930624060042,"
333",1,[2.1738983629911672],[2.17392504500458],863653,001,2024-11-15_00h06.56.904,intentional_bonding,2024.2.4,59.92805277607851,2024-11-15 00h07.02.910560 +0530,
0.4,1000,unexp,134,4,13,space,0.275473020010395,None,"
20",1,[3.3705759620061144],[3.3705924329988193],13,4,134,4,627.701665792003,,627.6936233989836,627.701665792003,628.6949261289847,628.6949261289847,628.7121028380061,628.9820356539858,space,0.275473020010395,None,628.9832938319887,629.3956040336673,629.7171257940063,629.6867370730033,629.6891275369853,629.7171257940063,629.7171257940063,629.7171257940063,633.0896467669809,"
20",1,[3.3705759620061144],[3.3705924329988193],863653,001,2024-11-15_00h06.56.904,intentional_bonding,2024.2.4,59.92805277607851,2024-11-15 00h07.02.910560 +0530,
0.4,400,exp,135,5,13,space,0.6016282399941701,None,"
 0",1,[2.208050526009174],[2.208126567013096],13,5,135,7,633.101037750981,,633.0907120310003,633.101037750981,634.0961874559871,634.0961874559871,634.1272296370007,634.7154821959848,space,0.6016282399941701,None,634.7167974689801,635.1304922626625,635.4673080339853,635.4362069329945,635.437669537001,635.4673080339853,635.4673080339853,635.4673080339853,637.677333161002,"
 0",1,[2.208050526009174],[2.208126567013096],863653,001,2024-11-15_00h06.56.904,intentional_bonding,2024.2.4,59.92805277607851,2024-11-15 00h07.02.910560 +0530,
0.7,1000,unexp,136,6,13,space,0.44666312899789773,None,"
77",1,[1.9616907669987995],[1.9617067459912505],13,6,136,2,637.6859576870047,,637.6779075179948,637.6859576870047,638.6790566169948,638.6790566169948,638.6962353900017,639.1322148899781,space,0.44666312899789773,None,639.1335139219882,639.8463474166676,640.1832265129779,640.1537576160044,640.1550749379967,640.1832265129779,640.1832265129779,640.1832265129779,642.1468436539872,"
77",1,[1.9616907669987995],[1.9617067459912505],863653,001,2024-11-15_00h06.56.904,intentional_bonding,2024.2.4,59.92805277607851,2024-11-15 00h07.02.910560 +0530,
0.1,400,exp,137,7,13,space,0.3193140729854349,None,"
29",1,[2.4005022700002883],[2.4005256289965473],13,7,137,6,642.1632160969893,,642.1475304710038,642.1632160969893,643.1690817530034,643.1690817530034,643.1690817530034,643.4997102019843,space,0.3193140729854349,None,643.5010598420049,643.6133892666587,643.9227196599822,643.903111897991,643.9041225709952,643.9227196599822,643.9227196599822,643.9227196599822,646.326257549983,"
29",1,[2.4005022700002883],[2.4005256289965473],863653,001,2024-11-15_00h06.56.904,intentional_bonding,2024.2.4,59.92805277607851,2024-11-15 00h07.02.910560 +0530,
0.1,400,exp,138,8,13,space,0.20950750302290544,None,"
67",1,[4.490113647014368],[4.4901275820157025],13,8,138,9,646.335053369985,,646.3269210779981,646.335053369985,647.3304034390021,647.3304034390021,647.346066883998,647.5498964889848,space,0.20950750302290544,None,647.5512468149827,647.6627996386708,647.9804261639947,647.9543971469975,647.9558787219867,647.9804261639947,647.9804261639947,647.9804261639947,652.4724930929951,"
67",1,[4.490113647014368],[4.4901275820157025],863653,001,2024-11-15_00h06.56.904,intentional_bonding,2024.2.4,59.92805277607851,2024-11-15 00h07.02.910560 +0530,
0.1,1000,unexp,139,9,13,space,0.07493111299118027,None,"
54",1,[1.6349108489812352],[1.6349282349983696],13,9,139,3,652.4826643179986,,652.4730479469872,652.4826643179986,653.480432205979,653.480432205979,653.4970913729921,653.5680199219787,space,0.07493111299118027,None,653.5695215669984,653.6803821576507,654.0040347249887,653.9723470039899,653.9753252129885,654.0040347249887,654.0040347249887,654.0040347249887,655.641784278996,"
54",1,[1.6349108489812352],[1.6349282349983696],863653,001,2024-11-15_00h06.56.904,intentional_bonding,2024.2.4,59.92805277607851,2024-11-15 00h07.02.910560 +0530,
0.7,400,exp,140,0,14,space,0.25503689001197927,None,"
89",1,[2.9994708219892345],[2.9994912009860855],14,0,140,8,655.6513258490013,,655.6429414299782,655.6513258490013,656.6470933569944,656.6470933569944,656.6644246889919,656.9171836659953,space,0.25503689001197927,None,656.918584665982,657.6303123996515,657.9507100000046,657.9213407979987,657.9223855639866,657.9507100000046,657.9507100000046,657.9507100000046,660.9528131709958,"
89",1,[2.9994708219892345],[2.9994912009860855],863653,001,2024-11-15_00h06.56.904,intentional_bonding,2024.2.4,59.92805277607851,2024-11-15 00h07.02.910560 +0530,
0.1,400,exp,141,1,14,space,0.1326978360011708,None,"
69",1,[1.1978620089939795],[1.197881600994151],14,1,141,6,660.9646480880037,,660.9534608789836,660.9646480880037,661.9647175470018,661.9647175470018,661.9647175470018,662.1049393139838,space,0.1326978360011708,None,662.1070721069991,662.2146706286624,662.5362187179853,662.5032775739965,662.504981081991,662.5362187179853,662.5362187179853,662.5362187179853,663.7363526870031,"
69",1,[1.1978620089939795],[1.197881600994151],863653,001,2024-11-15_00h06.56.904,intentional_bonding,2024.2.4,59.92805277607851,2024-11-15 00h07.02.910560 +0530,
0.4,1000,unexp,142,2,14,space,0.19425702298758551,None,"
0",1,[0.9019037319812924],[0.9019171590043698],14,2,142,4,663.7487148449873,,663.7371502909809,663.7487148449873,664.7478547309875,664.7478547309875,664.7478547309875,664.9517332369869,space,0.19425702298758551,None,664.9529193229973,665.36476000067,665.6793125979893,665.6548383430054,665.6562558589794,665.6793125979893,665.6793125979893,665.6793125979893,666.5832147149777,"
0",1,[0.9019037319812924],[0.9019171590043698],863653,001,2024-11-15_00h06.56.904,intentional_bonding,2024.2.4,59.92805277607851,2024-11-15 00h07.02.910560 +0530,
0.7,1000,unexp,143,3,14,space,0.30757625299156643,None,"
1000",1,[2.3256773549946956],[2.3257033789996058],14,3,143,2,666.5929258039978,,666.583789923985,666.5929258039978,667.5982172419899,667.5982172419899,667.5982172419899,667.918297842989,space,0.30757625299156643,None,667.9195377489959,668.6313558356526,668.9495200349775,668.9219157969928,668.9234888700012,668.9495200349775,668.9495200349775,668.9495200349775,671.2784466809826,"
1000",1,[2.3256773549946956],[2.3257033789996058],863653,001,2024-11-15_00h06.56.904,intentional_bonding,2024.2.4,59.92805277607851,2024-11-15 00h07.02.910560 +0530,
0.4,400,exp,144,4,14,space,0.08045876200776547,None,"
309",1,[4.826122184022097],[4.826139592012623],14,4,144,7,671.2867404329882,,671.2788759109972,671.2867404329882,672.2816259200044,672.2816259200044,672.2983882139961,672.3697689289984,space,0.08045876200776547,None,672.3710831530043,672.7813231006478,673.1073000659817,673.0726420449791,673.0743315049913,673.1073000659817,673.1073000659817,673.1073000659817,677.9349957550003,"
309",1,[4.826122184022097],[4.826139592012623],863653,001,2024-11-15_00h06.56.904,intentional_bonding,2024.2.4,59.92805277607851,2024-11-15 00h07.02.910560 +0530,
0.1,1000,unexp,145,5,14,space,0.18300210300367326,None,"
22",1,[2.556693586986512],[2.556704463000642],14,5,145,0,677.9489537949848,,677.9356342829997,677.9489537949848,678.9487110420014,678.9487110420014,678.9487110420014,679.1523095839948,space,0.18300210300367326,None,679.154505546001,679.265108510652,679.582620931993,679.5559645839967,679.5576099509781,679.582620931993,679.582620931993,679.582620931993,682.1413536059845,"
22",1,[2.556693586986512],[2.556704463000642],863653,001,2024-11-15_00h06.56.904,intentional_bonding,2024.2.4,59.92805277607851,2024-11-15 00h07.02.910560 +0530,
0.1,400,exp,146,6,14,space,0.07831478098523803,None,"
1",1,[1.7938379130209796],[1.79388151600142],14,6,146,9,682.156897887995,,682.1419702440035,682.156897887995,683.1399988869962,683.1399988869962,683.156125153997,683.2362113230047,space,0.07831478098523803,None,683.2376266039792,683.3487322616604,683.6694728299917,683.6397035879781,683.6412663929805,683.6694728299917,683.6694728299917,683.6694728299917,685.4648892499972,"
1",1,[1.7938379130209796],[1.79388151600142],863653,001,2024-11-15_00h06.56.904,intentional_bonding,2024.2.4,59.92805277607851,2024-11-15 00h07.02.910560 +0530,
0.7,400,exp,147,7,14,space,0.4934263190079946,None,"
6 ",1,[1.376817556010792],[1.3768386309966445],14,7,147,5,685.4738084329874,,685.4654240770033,685.4738084329874,686.4655976170034,686.4655976170034,686.4825323859986,686.9693759669899,space,0.4934263190079946,None,686.9705265499942,687.682953228654,688.0040345260059,687.972951890988,687.9745053850056,688.0040345260059,688.0040345260059,688.0040345260059,689.3826545669872,"
6 ",1,[1.376817556010792],[1.3768386309966445],863653,001,2024-11-15_00h06.56.904,intentional_bonding,2024.2.4,59.92805277607851,2024-11-15 00h07.02.910560 +0530,
0.1,1000,unexp,148,8,14,space,0.23942616701242514,None,"
2",1,[2.0817150849907193],[2.0817348700074945],14,8,148,3,689.3907667869935,,689.3833047490043,689.3907667869935,690.3859430379816,690.3859430379816,690.3993365219794,690.6362512499909,space,0.23942616701242514,None,690.6375757099886,690.7497601876714,691.0706079319934,691.0399581060046,691.0415529510065,691.0706079319934,691.0706079319934,691.0706079319934,693.1541711869941,"
2",1,[2.0817150849907193],[2.0817348700074945],863653,001,2024-11-15_00h06.56.904,intentional_bonding,2024.2.4,59.92805277607851,2024-11-15 00h07.02.910560 +0530,
0.4,1000,unexp,149,9,14,space,0.3174092039989773,None,"
300",1,[1.7578032799938228],[1.7579573949915357],14,9,149,1,693.1720605959999,,693.1548642409907,693.1720605959999,694.1749995849968,694.1749995849968,694.186723922001,694.5029483450053,space,0.3174092039989773,None,694.5045786649862,694.9170863546644,695.238320073986,695.207392671,695.2088230490044,695.238320073986,695.238320073986,695.238320073986,696.9982063309872,"
300",1,[1.7578032799938228],[1.7579573949915357],863653,001,2024-11-15_00h06.56.904,intentional_bonding,2024.2.4,59.92805277607851,2024-11-15 00h07.02.910560 +0530,
0.1,1000,unexp,150,0,15,space,0.25386828699265607,None,"
98",1,[4.739782432006905],[4.739800551004009],15,0,150,3,697.0071279889962,,696.9987606270006,697.0071279889962,698.0002563879825,698.0002563879825,698.0168954289984,698.2696296020004,space,0.25386828699265607,None,698.2708201909845,698.3832170566641,698.696870601998,698.673394109006,698.6745037490036,698.696870601998,698.696870601998,698.696870601998,703.4387739509984,"
98",1,[4.739782432006905],[4.739800551004009],863653,001,2024-11-15_00h06.56.904,intentional_bonding,2024.2.4,59.92805277607851,2024-11-15 00h07.02.910560 +0530,
0.7,400,exp,151,1,15,space,0.04691196500789374,None,"
12",1,[1.6984167240152601],[1.6984703720081598],15,1,151,5,703.450527064997,,703.4394545919786,703.450527064997,704.4505311370012,704.4505311370012,704.4505311370012,704.5051176399866,space,0.04691196500789374,None,704.5064595860022,705.2176778176547,705.5425487720058,705.5073529149813,705.5097838639922,705.5425487720058,705.5425487720058,705.5425487720058,707.2436475110007,"
12",1,[1.6984167240152601],[1.6984703720081598],863653,001,2024-11-15_00h06.56.904,intentional_bonding,2024.2.4,59.92805277607851,2024-11-15 00h07.02.910560 +0530,
0.4,400,exp,152,2,15,space,0.20227894699200988,None,"
6",1,[2.2816353689995594],[2.281648842996219],15,2,152,7,707.2530010449991,,707.2441298479971,707.2530010449991,708.2512488799985,708.2512488799985,708.26796147399,708.4703610040015,space,0.20227894699200988,None,708.471346278995,708.8836260496503,709.2095049060008,709.1754468639847,709.1773002230038,709.2095049060008,709.2095049060008,709.2095049060008,711.492751081998,"
6",1,[2.2816353689995594],[2.281648842996219],863653,001,2024-11-15_00h06.56.904,intentional_bonding,2024.2.4,59.92805277607851,2024-11-15 00h07.02.910560 +0530,
0.1,400,exp,153,3,15,space,0.3179918770038057,None,"
0",1,[1.1067925230017863],[1.1068091950146481],15,3,153,9,711.503122989001,,711.4932121890015,711.503122989001,712.5013239969849,712.5013239969849,712.5013239969849,712.837280149979,space,0.3179918770038057,None,712.8386421600007,712.9512539106693,713.2715649699967,713.2413529559853,713.2429088289791,713.2715649699967,713.2715649699967,713.2715649699967,714.382009449997,"
0",1,[1.1067925230017863],[1.1068091950146481],863653,001,2024-11-15_00h06.56.904,intentional_bonding,2024.2.4,59.92805277607851,2024-11-15 00h07.02.910560 +0530,
0.4,1000,unexp,154,4,15,space,0.3000033220159821,None,"
11",1,[1.5668485219939612],[1.5668689319863915],15,4,154,4,714.3907411870023,,714.3825322419871,714.3907411870023,715.3867831649841,715.3867831649841,715.4017128209816,715.7055531939841,space,0.3000033220159821,None,715.7069062639785,716.1190932196662,716.440060183988,716.408805102983,716.4109329500061,716.440060183988,716.440060183988,716.440060183988,718.0086610750004,"
11",1,[1.5668485219939612],[1.5668689319863915],863653,001,2024-11-15_00h06.56.904,intentional_bonding,2024.2.4,59.92805277607851,2024-11-15 00h07.02.910560 +0530,
0.1,400,exp,155,5,15,space,0.3173860520182643,None,"
56",1,[1.3696238279808313],[1.3696432569995522],15,5,155,6,718.0198336250032,,718.0093183009885,718.0198336250032,719.0185416479944,719.0185416479944,719.0185416479944,719.341410641995,space,0.3173860520182643,None,719.3434536459972,719.4516189326571,719.7646377769997,719.7420648399857,719.7431506449939,719.7646377769997,719.7646377769997,719.7646377769997,721.1362420079822,"
56",1,[1.3696238279808313],[1.3696432569995522],863653,001,2024-11-15_00h06.56.904,intentional_bonding,2024.2.4,59.92805277607851,2024-11-15 00h07.02.910560 +0530,
0.1,1000,unexp,156,6,15,space,0.015883445012150332,None,"
900",1,[2.6288473960012197],[2.628865312988637],15,6,156,0,721.1460995159869,,721.1368366999959,721.1460995159869,722.1416501519852,722.1416501519852,722.1416501519852,722.1665077839862,space,0.015883445012150332,None,722.1679585009988,722.2685931156486,722.5820624869957,722.5584837989882,722.5596284809872,722.5820624869957,722.5820624869957,722.5820624869957,725.2127340209845,"
900",1,[2.6288473960012197],[2.628865312988637],863653,001,2024-11-15_00h06.56.904,intentional_bonding,2024.2.4,59.92805277607851,2024-11-15 00h07.02.910560 +0530,
0.7,400,exp,157,7,15,space,0.43235839501721784,None,"
100",1,[1.5342408400028944],[1.5342599870054983],15,7,157,8,725.2241687219939,,725.2134772309801,725.2241687219939,726.219129028992,726.219129028992,726.2357635689841,726.6571360829985,space,0.43235839501721784,None,726.658521882986,727.3689265846663,727.69314570399,727.6595092609932,727.6617234360019,727.69314570399,727.69314570399,727.69314570399,729.229066867003,"
100",1,[1.5342408400028944],[1.5342599870054983],863653,001,2024-11-15_00h06.56.904,intentional_bonding,2024.2.4,59.92805277607851,2024-11-15 00h07.02.910560 +0530,
0.7,1000,unexp,158,8,15,space,0.20235130199580453,None,"
56",1,[1.7967573319911025],[1.796774327987805],15,8,158,2,729.2388877899793,,729.229772021994,729.2388877899793,730.2355757539917,730.2355757539917,730.2525264789874,730.457790201006,space,0.20235130199580453,None,730.4589944869804,731.1587081826622,731.4880835069926,731.4599188659922,731.4619734690059,731.4880835069926,731.4880835069926,731.4880835069926,733.2867296350014,"
56",1,[1.7967573319911025],[1.796774327987805],863653,001,2024-11-15_00h06.56.904,intentional_bonding,2024.2.4,59.92805277607851,2024-11-15 00h07.02.910560 +0530,
0.4,1000,unexp,159,9,15,space,0.1498068849905394,None,"
33",1,[2.1393778729834594],[2.1393961120047607],15,9,159,1,733.2951259639813,,733.2872777569864,733.2951259639813,734.3027694189805,734.3027694189805,734.3027694189805,734.4581692469947,space,0.1498068849905394,None,734.4600333419803,734.8696822316599,735.1935896229988,735.1641136399994,735.1673218389915,735.1935896229988,735.1935896229988,735.1935896229988,737.3347391449788,"
33",1,[2.1393778729834594],[2.1393961120047607],863653,001,2024-11-15_00h06.56.904,intentional_bonding,2024.2.4,59.92805277607851,2024-11-15 00h07.02.910560 +0530,
0.7,400,exp,160,0,16,space,0.026664479984901845,None,"
55",1,[1.8833994239976164],[1.883417056989856],16,0,160,5,737.3431717909989,,737.3353036599874,737.3431717909989,738.3366381920059,738.3366381920059,738.3532790330064,738.3743951210054,space,0.026664479984901845,None,738.3758663990011,739.086466539655,739.4015978130046,739.3768194809963,739.3782427829865,739.4015978130046,739.4015978130046,739.4015978130046,741.2870165999921,"
55",1,[1.8833994239976164],[1.883417056989856],863653,001,2024-11-15_00h06.56.904,intentional_bonding,2024.2.4,59.92805277607851,2024-11-15 00h07.02.910560 +0530,
0.1,1000,unexp,161,1,16,space,0.28543031300068833,None,"
98",1,[1.5447395640076138],[1.5447536860010587],16,1,161,3,741.295758873981,,741.2877641519881,741.295758873981,742.2867438269896,742.2867438269896,742.3032552649966,742.5917706670007,space,0.28543031300068833,None,742.5932333189994,742.7030619226609,743.0166832690011,742.9942174349853,742.9952602459816,743.0166832690011,743.0166832690011,743.0166832690011,744.5632264339947,"
98",1,[1.5447395640076138],[1.5447536860010587],863653,001,2024-11-15_00h06.56.904,intentional_bonding,2024.2.4,59.92805277607851,2024-11-15 00h07.02.910560 +0530,
0.4,1000,unexp,162,2,16,space,0.18412422499386594,None,"
222",1,[2.9703905930218752],[2.9704068519931752],16,2,162,4,744.5731389799912,,744.5638051179994,744.5731389799912,745.5700687269855,745.5700687269855,745.5867111779808,745.7592793789809,space,0.18412422499386594,None,745.7607735779893,746.1593733016673,746.5021074389806,746.4617447899946,746.4634030739835,746.5021074389806,746.5021074389806,746.5021074389806,749.4743665779824,"
222",1,[2.9703905930218752],[2.9704068519931752],863653,001,2024-11-15_00h06.56.904,intentional_bonding,2024.2.4,59.92805277607851,2024-11-15 00h07.02.910560 +0530,
0.4,400,exp,163,3,16,space,0.1393172990065068,None,"
4 ",1,[2.1832943210029043],[2.1833163170085754],16,3,163,7,749.4872183639964,,749.4748686839885,749.4872183639964,750.4870751840062,750.4870751840062,750.4870751840062,750.6405253609992,space,0.1393172990065068,None,750.6416423849878,751.0535226196555,751.3788010699791,751.345593984006,751.3475969859865,751.3788010699791,751.3788010699791,751.3788010699791,753.5644583569956,"
4 ",1,[2.1832943210029043],[2.1833163170085754],863653,001,2024-11-15_00h06.56.904,intentional_bonding,2024.2.4,59.92805277607851,2024-11-15 00h07.02.910560 +0530,
0.1,400,exp,164,4,16,space,0.8806825839856174,None,"
100",1,[2.423786925006425],[2.4238078809867147],16,4,164,9,753.5751095440064,,753.5652074209938,753.5751095440064,754.5703441209916,754.5703441209916,754.5868851520063,755.4585989599873,space,0.8806825839856174,None,755.4600325019856,755.5703557656709,755.888543470006,755.8626737449958,755.8639384020062,755.888543470006,755.888543470006,755.888543470006,758.3144775559776,"
100",1,[2.423786925006425],[2.4238078809867147],863653,001,2024-11-15_00h06.56.904,intentional_bonding,2024.2.4,59.92805277607851,2024-11-15 00h07.02.910560 +0530,
0.1,1000,unexp,165,5,16,space,0.14101994902011938,None,"
